Wavelength (nm)	"128, M 1989_771, 6 DMSO"
200.00	
201.00	
202.00	
203.00	
204.00	
205.00	
206.00	
207.00	
208.00	
209.00	
210.00	
211.00	
212.00	
213.00	
214.00	
215.00	
216.00	
217.00	
218.00	
219.00	
220.00	
221.00	
222.00	
223.00	
224.00	
225.00	
226.00	
227.00	
228.00	
229.00	
230.00	
231.00	
232.00	
233.00	
234.00	
235.00	
236.00	
237.00	
238.00	
239.00	
240.00	
241.00	
242.00	
243.00	
244.00	
245.00	
246.00	
247.00	
248.00	
249.00	
250.00	
251.00	
252.00	
253.00	
254.00	
255.00	
256.00	
257.00	
258.00	
259.00	
260.00	
261.00	
262.00	
263.00	
264.00	
265.00	
266.00	
267.00	
268.00	
269.00	
270.00	
271.00	
272.00	
273.00	
274.00	
275.00	
276.00	
277.00	
278.00	
279.00	
280.00	
281.00	
282.00	
283.00	
284.00	
285.00	
286.00	
287.00	
288.00	
289.00	
290.00	
291.00	
292.00	
293.00	
294.00	
295.00	
296.00	
297.00	
298.00	
299.00	
300.00	0.72371
301.00	0.73264
302.00	0.74157
303.00	0.75050
304.00	0.76260
305.00	0.77690
306.00	0.79121
307.00	0.80551
308.00	0.81968
309.00	0.83352
310.00	0.84736
311.00	0.86120
312.00	0.87504
313.00	0.88692
314.00	0.89822
315.00	0.90953
316.00	0.92083
317.00	0.93154
318.00	0.94157
319.00	0.95159
320.00	0.96161
321.00	0.96942
322.00	0.97646
323.00	0.98349
324.00	0.98882
325.00	0.99301
326.00	0.99704
327.00	0.99852
328.00	1.0000
329.00	0.99731
330.00	0.99461
331.00	0.98689
332.00	0.97741
333.00	0.96792
334.00	0.95289
335.00	0.93432
336.00	0.91576
337.00	0.89719
338.00	0.86304
339.00	0.82677
340.00	0.79503
341.00	0.76730
342.00	0.73958
343.00	0.71185
344.00	0.68429
345.00	0.65730
346.00	0.63031
347.00	0.60332
348.00	0.57686
349.00	0.55162
350.00	0.52638
351.00	0.50114
352.00	0.47925
353.00	0.46282
354.00	0.44640
355.00	0.42997
356.00	0.41391
357.00	0.40261
358.00	0.39132
359.00	0.38003
360.00	0.36873
361.00	0.35889
362.00	0.34910
363.00	0.33931
364.00	0.32953
365.00	0.31990
366.00	0.31272
367.00	0.30555
368.00	0.29837
369.00	0.29119
370.00	0.28402
371.00	0.27684
372.00	0.27105
373.00	0.26622
374.00	0.26139
375.00	0.25657
376.00	0.25174
377.00	0.24691
378.00	0.24208
379.00	0.23725
380.00	0.23310
381.00	0.22949
382.00	0.22588
383.00	0.22227
384.00	0.21867
385.00	0.21506
386.00	0.21145
387.00	0.20785
388.00	0.20424
389.00	0.20063
390.00	0.19702
391.00	0.19413
392.00	0.19176
393.00	0.18938
394.00	0.18701
395.00	0.18464
396.00	0.18226
397.00	0.17989
398.00	0.17751
399.00	0.17514
400.00	0.17276
401.00	0.17039
402.00	0.16885
403.00	0.16732
404.00	0.16578
405.00	0.16424
406.00	0.16271
407.00	0.16117
408.00	0.15963
409.00	0.15810
410.00	0.15656
411.00	0.15541
412.00	0.15452
413.00	0.15363
414.00	0.15274
415.00	0.15185
416.00	0.15096
417.00	0.15007
418.00	0.14918
419.00	0.14829
420.00	0.14756
421.00	0.14756
422.00	0.14756
423.00	0.14756
424.00	0.14756
425.00	0.14756
426.00	0.14756
427.00	0.14756
428.00	0.14763
429.00	0.14812
430.00	0.14860
431.00	0.14909
432.00	0.14957
433.00	0.15006
434.00	0.15054
435.00	0.15102
436.00	0.15151
437.00	0.15199
438.00	0.15313
439.00	0.15449
440.00	0.15585
441.00	0.15721
442.00	0.15856
443.00	0.15992
444.00	0.16128
445.00	0.16264
446.00	0.16400
447.00	0.16536
448.00	0.16672
449.00	0.16808
450.00	0.17022
451.00	0.17238
452.00	0.17454
453.00	0.17669
454.00	0.17885
455.00	0.18101
456.00	0.18316
457.00	0.18532
458.00	0.18764
459.00	0.19080
460.00	0.19396
461.00	0.19712
462.00	0.20028
463.00	0.20344
464.00	0.20660
465.00	0.20976
466.00	0.21292
467.00	0.21704
468.00	0.22153
469.00	0.22601
470.00	0.23049
471.00	0.23497
472.00	0.23946
473.00	0.24394
474.00	0.24852
475.00	0.25410
476.00	0.25968
477.00	0.26526
478.00	0.27084
479.00	0.27641
480.00	0.28199
481.00	0.28757
482.00	0.29360
483.00	0.30019
484.00	0.30677
485.00	0.31336
486.00	0.31995
487.00	0.32653
488.00	0.33312
489.00	0.33970
490.00	0.34629
491.00	0.35287
492.00	0.35946
493.00	0.36638
494.00	0.37367
495.00	0.38096
496.00	0.38825
497.00	0.39554
498.00	0.40283
499.00	0.41012
500.00	0.41741
501.00	0.42470
502.00	0.43200
503.00	0.43929
504.00	0.44668
505.00	0.45432
506.00	0.46195
507.00	0.46959
508.00	0.47723
509.00	0.48487
510.00	0.49250
511.00	0.50014
512.00	0.50778
513.00	0.51541
514.00	0.52305
515.00	0.53069
516.00	0.53861
517.00	0.54678
518.00	0.55494
519.00	0.56311
520.00	0.57127
521.00	0.57944
522.00	0.58761
523.00	0.59577
524.00	0.60394
525.00	0.61211
526.00	0.62027
527.00	0.62827
528.00	0.63547
529.00	0.64266
530.00	0.64985
531.00	0.65705
532.00	0.66424
533.00	0.67144
534.00	0.67863
535.00	0.68582
536.00	0.69302
537.00	0.70021
538.00	0.70652
539.00	0.71222
540.00	0.71791
541.00	0.72361
542.00	0.72930
543.00	0.73500
544.00	0.74060
545.00	0.74617
546.00	0.75174
547.00	0.75731
548.00	0.76225
549.00	0.76466
550.00	0.76706
551.00	0.76947
552.00	0.77177
553.00	0.77300
554.00	0.77424
555.00	0.77547
556.00	0.77420
557.00	0.77293
558.00	0.77009
559.00	0.76621
560.00	0.76235
561.00	0.75874
562.00	0.75513
563.00	0.75073
564.00	0.74458
565.00	0.73843
566.00	0.73157
567.00	0.72468
568.00	0.71780
569.00	0.71091
570.00	0.70402
571.00	0.69714
572.00	0.68831
573.00	0.67922
574.00	0.67013
575.00	0.66104
576.00	0.65195
577.00	0.64286
578.00	0.63377
579.00	0.62468
580.00	0.61559
581.00	0.60503
582.00	0.59374
583.00	0.58245
584.00	0.57116
585.00	0.55987
586.00	0.54858
587.00	0.53667
588.00	0.52383
589.00	0.51099
590.00	0.49815
591.00	0.48531
592.00	0.47247
593.00	0.45963
594.00	0.44679
595.00	0.43395
596.00	0.41966
597.00	0.40310
598.00	0.38653
599.00	0.36997
600.00	0.35340
601.00	0.33768
602.00	0.32401
603.00	0.31034
604.00	0.29667
605.00	0.28300
606.00	0.26933
607.00	0.26057
608.00	0.25181
609.00	0.24305
610.00	0.23428
611.00	0.22552
612.00	0.21676
613.00	0.21036
614.00	0.20417
615.00	0.19797
616.00	0.19178
617.00	0.18558
618.00	0.17939
619.00	0.17319
620.00	0.16861
621.00	0.16482
622.00	0.16102
623.00	0.15723
624.00	0.15344
625.00	0.14965
626.00	0.14585
627.00	0.14206
628.00	0.13827
629.00	0.13449
630.00	0.13070
631.00	0.12692
632.00	0.12313
633.00	0.11935
634.00	0.11556
635.00	0.11178
636.00	0.10898
637.00	0.10642
638.00	0.10386
639.00	0.10131
640.00	0.098754
641.00	0.096198
642.00	0.093643
643.00	0.091087
644.00	0.089107
645.00	0.087309
646.00	0.085510
647.00	0.083712
648.00	0.081913
649.00	0.080115
650.00	0.078316
651.00	0.076518
652.00	0.074719
653.00	0.072921
654.00	0.071218
655.00	0.069949
656.00	0.068681
657.00	0.067412
658.00	0.066143
659.00	0.064875
660.00	0.063606
661.00	0.062338
662.00	0.061069
663.00	0.059801
664.00	0.058546
665.00	0.057300
666.00	0.056055
667.00	0.054810
668.00	0.053564
669.00	0.052319
670.00	0.051074
671.00	0.049828
672.00	0.048583
673.00	0.047338
674.00	0.046172
675.00	0.045345
676.00	0.044517
677.00	0.043690
678.00	0.042863
679.00	0.042036
680.00	0.041208
681.00	0.040381
682.00	0.039554
683.00	0.038727
684.00	0.037899
685.00	0.037072
686.00	0.036307
687.00	0.035752
688.00	0.035197
689.00	0.034642
690.00	0.034087
691.00	0.033532
692.00	0.032977
693.00	0.032422
694.00	0.031867
695.00	0.031312
696.00	0.030757
697.00	0.030226
698.00	0.029765
699.00	0.029304
700.00	0.028843
701.00	0.028383
702.00	0.027922
703.00	0.027461
704.00	0.027000
705.00	0.026539
706.00	0.026078
707.00	0.025617
708.00	0.025156
709.00	0.024820
710.00	0.024538
711.00	0.024256
712.00	0.023973
713.00	0.023691
714.00	0.023408
715.00	0.023126
716.00	0.022844
717.00	0.022561
718.00	0.022279
719.00	0.021997
720.00	0.021543
721.00	0.021074
722.00	0.020606
723.00	0.020137
724.00	0.019668
725.00	0.019200
726.00	0.018731
727.00	0.018263
728.00	0.017794
729.00	0.017325
730.00	0.016857
731.00	0.016384
732.00	0.015908
733.00	0.015433
734.00	0.014957
735.00	0.014481
736.00	0.014005
737.00	0.013529
738.00	0.013053
739.00	0.012577
740.00	0.012299
741.00	0.012093
742.00	0.011888
743.00	0.011682
744.00	0.011477
745.00	0.011271
746.00	0.011066
747.00	0.010860
748.00	0.010655
749.00	0.010449
750.00	0.010244
751.00	
752.00	
753.00	
754.00	
755.00	
756.00	
757.00	
758.00	
759.00	
760.00	
761.00	
762.00	
763.00	
764.00	
765.00	
766.00	
767.00	
768.00	
769.00	
770.00	
771.00	
772.00	
773.00	
774.00	
775.00	
776.00	
777.00	
778.00	
779.00	
780.00	
781.00	
782.00	
783.00	
784.00	
785.00	
786.00	
787.00	
788.00	
789.00	
790.00	
791.00	
792.00	
793.00	
794.00	
795.00	
796.00	
797.00	
798.00	
799.00	
800.00	
801.00	
802.00	
803.00	
804.00	
805.00	
806.00	
807.00	
808.00	
809.00	
810.00	
811.00	
812.00	
813.00	
814.00	
815.00	
816.00	
817.00	
818.00	
819.00	
820.00	
821.00	
822.00	
823.00	
824.00	
825.00	
826.00	
827.00	
828.00	
829.00	
830.00	
831.00	
832.00	
833.00	
834.00	
835.00	
836.00	
837.00	
838.00	
839.00	
840.00	
841.00	
842.00	
843.00	
844.00	
845.00	
846.00	
847.00	
848.00	
849.00	
850.00	
851.00	
852.00	
853.00	
854.00	
855.00	
856.00	
857.00	
858.00	
859.00	
860.00	
861.00	
862.00	
863.00	
864.00	
865.00	
866.00	
867.00	
868.00	
869.00	
870.00	
871.00	
872.00	
873.00	
874.00	
875.00	
876.00	
877.00	
878.00	
879.00	
880.00	
881.00	
882.00	
883.00	
884.00	
885.00	
886.00	
887.00	
888.00	
889.00	
890.00	
891.00	
892.00	
893.00	
894.00	
895.00	
896.00	
897.00	
898.00	
899.00	
900.00	
901.00	
902.00	
903.00	
904.00	
905.00	
906.00	
907.00	
908.00	
909.00	
910.00	
911.00	
912.00	
913.00	
914.00	
915.00	
916.00	
917.00	
918.00	
919.00	
920.00	
921.00	
922.00	
923.00	
924.00	
925.00	
926.00	
927.00	
928.00	
929.00	
930.00	
931.00	
932.00	
933.00	
934.00	
935.00	
936.00	
937.00	
938.00	
939.00	
940.00	
941.00	
942.00	
943.00	
944.00	
945.00	
946.00	
947.00	
948.00	
949.00	
950.00	
951.00	
952.00	
953.00	
954.00	
955.00	
956.00	
957.00	
958.00	
959.00	
960.00	
961.00	
962.00	
963.00	
964.00	
965.00	
966.00	
967.00	
968.00	
969.00	
970.00	
971.00	
972.00	
973.00	
974.00	
975.00	
976.00	
977.00	
978.00	
979.00	
980.00	
981.00	
982.00	
983.00	
984.00	
985.00	
986.00	
987.00	
988.00	
989.00	
990.00	
991.00	
992.00	
993.00	
994.00	
995.00	
996.00	
997.00	
998.00	
999.00	
1000.0	
1001.0	
1002.0	
1003.0	
1004.0	
1005.0	
1006.0	
1007.0	
1008.0	
1009.0	
1010.0	
1011.0	
1012.0	
1013.0	
1014.0	
1015.0	
1016.0	
1017.0	
1018.0	
1019.0	
1020.0	
1021.0	
1022.0	
1023.0	
1024.0	
1025.0	
1026.0	
1027.0	
1028.0	
1029.0	
1030.0	
1031.0	
1032.0	
1033.0	
1034.0	
1035.0	
1036.0	
1037.0	
1038.0	
1039.0	
1040.0	
1041.0	
1042.0	
1043.0	
1044.0	
1045.0	
1046.0	
1047.0	
1048.0	
1049.0	
1050.0	
1051.0	
1052.0	
1053.0	
1054.0	
1055.0	
1056.0	
1057.0	
1058.0	
1059.0	
1060.0	
1061.0	
1062.0	
1063.0	
1064.0	
1065.0	
1066.0	
1067.0	
1068.0	
1069.0	
1070.0	
1071.0	
1072.0	
1073.0	
1074.0	
1075.0	
1076.0	
1077.0	
1078.0	
1079.0	
1080.0	
1081.0	
1082.0	
1083.0	
1084.0	
1085.0	
1086.0	
1087.0	
1088.0	
1089.0	
1090.0	
1091.0	
1092.0	
1093.0	
1094.0	
1095.0	
1096.0	
1097.0	
1098.0	
1099.0	
1100.0	
1101.0	
1102.0	
1103.0	
1104.0	
1105.0	
1106.0	
1107.0	
1108.0	
1109.0	
1110.0	
1111.0	
1112.0	
1113.0	
1114.0	
1115.0	
1116.0	
1117.0	
1118.0	
1119.0	
1120.0	
1121.0	
1122.0	
1123.0	
1124.0	
1125.0	
1126.0	
1127.0	
1128.0	
1129.0	
1130.0	
1131.0	
1132.0	
1133.0	
1134.0	
1135.0	
1136.0	
1137.0	
1138.0	
1139.0	
1140.0	
1141.0	
1142.0	
1143.0	
1144.0	
1145.0	
1146.0	
1147.0	
1148.0	
1149.0	
1150.0	
1151.0	
1152.0	
1153.0	
1154.0	
1155.0	
1156.0	
1157.0	
1158.0	
1159.0	
1160.0	
1161.0	
1162.0	
1163.0	
1164.0	
1165.0	
1166.0	
1167.0	
1168.0	
1169.0	
1170.0	
1171.0	
1172.0	
1173.0	
1174.0	
1175.0	
1176.0	
1177.0	
1178.0	
1179.0	
1180.0	
1181.0	
1182.0	
1183.0	
1184.0	
1185.0	
1186.0	
1187.0	
1188.0	
1189.0	
1190.0	
1191.0	
1192.0	
1193.0	
1194.0	
1195.0	
1196.0	
1197.0	
1198.0	
1199.0	
1200.0	
