Wavelength (nm)	R04 abs e
250.00	12277
250.25	12309
250.50	12197
250.75	12254
251.00	11864
251.25	11796
251.50	11599
251.75	11270
252.00	11255
252.25	11189
252.50	11045
252.75	11058
253.00	11092
253.25	10814
253.50	10715
253.75	10592
254.00	10502
254.25	10366
254.50	10371
254.75	10054
255.00	10189
255.25	10081
255.50	9995.0
255.75	9890.8
256.00	9970.4
256.25	9789.3
256.50	9657.5
256.75	9806.1
257.00	9696.0
257.25	9551.5
257.50	9248.9
257.75	9121.9
258.00	9246.6
258.25	9337.9
258.50	9171.5
258.75	9164.4
259.00	8981.9
259.25	9009.9
259.50	8888.1
259.75	8959.8
260.00	8917.2
260.25	8922.6
260.50	8842.7
260.75	9009.9
261.00	8800.6
261.25	8866.2
261.50	8763.4
261.75	8705.7
262.00	8746.1
262.25	8900.0
262.50	8804.0
262.75	8711.8
263.00	8653.4
263.25	8758.4
263.50	8553.7
263.75	8598.5
264.00	8677.0
264.25	8838.6
264.50	8640.7
264.75	8628.2
265.00	8638.3
265.25	8714.9
265.50	8539.5
265.75	8525.0
266.00	8724.9
266.25	8580.9
266.50	8506.0
266.75	8475.7
267.00	8587.3
267.25	8571.2
267.50	8562.7
267.75	8475.1
268.00	8497.1
268.25	8600.9
268.50	8546.3
268.75	8607.0
269.00	8545.3
269.25	8486.9
269.50	8541.1
269.75	8642.9
270.00	8646.3
270.25	8707.6
270.50	8463.3
270.75	8535.5
271.00	8599.5
271.25	8553.0
271.50	8500.4
271.75	8570.2
272.00	8617.5
272.25	8542.0
272.50	8564.3
272.75	8721.9
273.00	8576.9
273.25	8574.3
273.50	8622.6
273.75	8571.4
274.00	8461.8
274.25	8722.1
274.50	8498.2
274.75	8586.6
275.00	8753.3
275.25	8658.2
275.50	8678.7
275.75	8387.4
276.00	8652.2
276.25	8483.2
276.50	8665.7
276.75	8658.7
277.00	8500.0
277.25	8548.3
277.50	8615.5
277.75	8584.3
278.00	8653.7
278.25	8370.6
278.50	8623.4
278.75	8588.1
279.00	8673.2
279.25	8478.8
279.50	8553.9
279.75	8452.5
280.00	8660.9
280.25	8487.6
280.50	8523.4
280.75	8551.5
281.00	8409.9
281.25	8541.5
281.50	8334.0
281.75	8437.7
282.00	8401.4
282.25	8689.4
282.50	8424.6
282.75	8445.1
283.00	8527.6
283.25	8592.1
283.50	8253.9
283.75	8313.4
284.00	8609.2
284.25	8361.5
284.50	8331.6
284.75	8246.8
285.00	8340.2
285.25	8238.1
285.50	8329.0
285.75	8253.6
286.00	8261.4
286.25	8497.6
286.50	8231.9
286.75	8340.6
287.00	8285.5
287.25	8264.5
287.50	8261.4
287.75	8237.4
288.00	8131.0
288.25	8230.5
288.50	8296.6
288.75	8164.9
289.00	8057.3
289.25	8090.7
289.50	8130.8
289.75	8146.7
290.00	7901.7
290.25	7997.8
290.50	8108.2
290.75	8095.8
291.00	8142.5
291.25	7970.2
291.50	7938.5
291.75	7835.3
292.00	7903.3
292.25	7974.3
292.50	7859.4
292.75	8051.4
293.00	7894.8
293.25	7684.5
293.50	7825.9
293.75	7767.2
294.00	7772.5
294.25	7650.1
294.50	7746.1
294.75	7949.0
295.00	7837.9
295.25	7736.7
295.50	7811.2
295.75	7772.8
296.00	7671.6
296.25	7669.4
296.50	7540.4
296.75	7636.9
297.00	7819.1
297.25	7691.6
297.50	7442.1
297.75	7543.2
298.00	7624.2
298.25	7654.3
298.50	7605.8
298.75	7655.5
299.00	7597.1
299.25	7402.3
299.50	7456.9
299.75	7495.8
300.00	7398.1
300.25	7476.2
300.50	7359.6
300.75	7619.9
301.00	7401.9
301.25	7242.1
301.50	7512.4
301.75	7477.5
302.00	7310.2
302.25	7258.1
302.50	7356.5
302.75	7099.5
303.00	7376.1
303.25	7163.3
303.50	7252.5
303.75	7328.3
304.00	7426.9
304.25	7252.4
304.50	7272.2
304.75	7236.6
305.00	7113.8
305.25	7064.7
305.50	7284.9
305.75	7181.1
306.00	7017.7
306.25	6823.3
306.50	7040.8
306.75	7021.2
307.00	7075.5
307.25	7113.7
307.50	6928.4
307.75	6851.9
308.00	6765.9
308.25	6925.5
308.50	6881.0
308.75	7111.3
309.00	6931.9
309.25	6923.1
309.50	6854.2
309.75	6848.9
310.00	6839.2
310.25	6936.0
310.50	6832.6
310.75	6551.5
311.00	6588.3
311.25	6646.7
311.50	6717.0
311.75	6730.0
312.00	6661.2
312.25	6577.5
312.50	6696.2
312.75	6608.5
313.00	6548.5
313.25	6635.5
313.50	6367.6
313.75	6588.2
314.00	6558.3
314.25	6414.6
314.50	6453.9
314.75	6375.6
315.00	6486.9
315.25	6347.5
315.50	6289.0
315.75	6241.2
316.00	6306.7
316.25	6205.6
316.50	6248.1
316.75	6391.7
317.00	6189.3
317.25	6333.4
317.50	6099.5
317.75	6230.0
318.00	6206.3
318.25	6137.8
318.50	6062.9
318.75	5940.9
319.00	5893.5
319.25	5980.2
319.50	6024.7
319.75	5930.3
320.00	6039.5
320.25	5845.0
320.50	5782.7
320.75	6025.3
321.00	5915.3
321.25	5859.8
321.50	5846.0
321.75	5657.3
322.00	5899.2
322.25	5650.9
322.50	5588.7
322.75	5726.6
323.00	5709.3
323.25	5573.6
323.50	5508.1
323.75	5667.4
324.00	5720.1
324.25	5516.0
324.50	5355.2
324.75	5481.8
325.00	5358.3
325.25	5462.3
325.50	5594.2
325.75	5239.0
326.00	5224.4
326.25	5180.6
326.50	5282.5
326.75	5340.9
327.00	5086.9
327.25	5127.3
327.50	5342.2
327.75	5238.6
328.00	5061.1
328.25	4926.2
328.50	5197.7
328.75	5108.1
329.00	4959.1
329.25	5060.1
329.50	4952.1
329.75	4896.5
330.00	4881.9
330.25	5001.3
330.50	4995.3
330.75	4787.1
331.00	4860.9
331.25	4954.2
331.50	4609.4
331.75	4777.1
332.00	4832.0
332.25	4685.1
332.50	4767.1
332.75	4825.4
333.00	4852.8
333.25	4729.4
333.50	4731.5
333.75	4683.3
334.00	4382.6
334.25	4639.7
334.50	4553.7
334.75	4454.0
335.00	4604.3
335.25	4914.1
335.50	4753.8
335.75	4368.6
336.00	4590.7
336.25	4624.3
336.50	4837.7
336.75	4562.4
337.00	4472.7
337.25	4500.9
337.50	4456.2
337.75	4562.6
338.00	4298.8
338.25	4430.2
338.50	4279.8
338.75	4414.2
339.00	4381.4
339.25	4377.6
339.50	4420.9
339.75	4662.6
340.00	4425.7
340.25	4361.0
340.50	4262.3
340.75	4471.7
341.00	4402.0
341.25	4391.5
341.50	4414.0
341.75	4569.3
342.00	4228.7
342.25	4207.6
342.50	4386.8
342.75	4366.5
343.00	4265.6
343.25	4201.6
343.50	4215.8
343.75	4415.4
344.00	4503.0
344.25	4287.6
344.50	4496.9
344.75	4386.8
345.00	4382.1
345.25	4586.8
345.50	4329.9
345.75	4257.0
346.00	4539.4
346.25	4532.8
346.50	4587.9
346.75	4415.2
347.00	4402.6
347.25	4564.3
347.50	4416.8
347.75	4659.2
348.00	4427.3
348.25	4699.2
348.50	4718.4
348.75	4285.0
349.00	4596.6
349.25	4835.3
349.50	4717.7
349.75	4755.1
350.00	4669.9
350.25	4601.5
350.50	4574.9
350.75	4768.5
351.00	4831.5
351.25	4759.0
351.50	4944.5
351.75	4873.9
352.00	4856.8
352.25	4992.5
352.50	5099.7
352.75	4893.4
353.00	4981.8
353.25	5077.0
353.50	5186.1
353.75	5241.5
354.00	5169.5
354.25	4998.4
354.50	5168.0
354.75	5226.8
355.00	5271.2
355.25	5355.7
355.50	5354.4
355.75	5310.0
356.00	5210.9
356.25	5474.9
356.50	5255.0
356.75	5497.8
357.00	5430.7
357.25	5615.8
357.50	5714.1
357.75	5686.5
358.00	5629.8
358.25	5877.1
358.50	5830.7
358.75	5696.6
359.00	5831.7
359.25	5851.4
359.50	5928.5
359.75	6048.9
360.00	5965.8
360.25	6022.4
360.50	6100.7
360.75	6100.9
361.00	6163.9
361.25	6251.7
361.50	6225.6
361.75	6248.6
362.00	6414.8
362.25	6371.0
362.50	6491.1
362.75	6478.0
363.00	6699.1
363.25	6573.8
363.50	6750.3
363.75	6691.8
364.00	6706.6
364.25	6737.9
364.50	6893.5
364.75	6793.6
365.00	7000.2
365.25	7025.6
365.50	7019.9
365.75	7106.9
366.00	7253.4
366.25	7187.6
366.50	7322.7
366.75	7468.4
367.00	7419.9
367.25	7471.4
367.50	7512.5
367.75	7631.6
368.00	7745.4
368.25	7754.1
368.50	7759.9
368.75	7814.6
369.00	8056.9
369.25	8006.2
369.50	8147.5
369.75	8237.9
370.00	8216.6
370.25	8398.3
370.50	8344.9
370.75	8446.5
371.00	8426.0
371.25	8603.2
371.50	8606.3
371.75	8741.0
372.00	8960.3
372.25	8910.9
372.50	8978.3
372.75	8918.0
373.00	9080.4
373.25	9143.7
373.50	9260.3
373.75	9333.1
374.00	9414.8
374.25	9545.7
374.50	9407.5
374.75	9640.8
375.00	9710.6
375.25	9832.9
375.50	9834.2
375.75	10037
376.00	9974.4
376.25	10190
376.50	10185
376.75	10385
377.00	10443
377.25	10552
377.50	10612
377.75	10744
378.00	10819
378.25	10857
378.50	10956
378.75	11123
379.00	11376
379.25	11274
379.50	11404
379.75	11511
380.00	11574
380.25	11716
380.50	11804
380.75	12041
381.00	12049
381.25	12181
381.50	12176
381.75	12343
382.00	12399
382.25	12565
382.50	12583
382.75	12936
383.00	12853
383.25	13026
383.50	13055
383.75	13141
384.00	13361
384.25	13547
384.50	13555
384.75	13661
385.00	13800
385.25	13945
385.50	14032
385.75	14146
386.00	14265
386.25	14378
386.50	14632
386.75	14598
387.00	14814
387.25	14963
387.50	15024
387.75	15152
388.00	15237
388.25	15365
388.50	15644
388.75	15720
389.00	15782
389.25	15890
389.50	16101
389.75	16217
390.00	16353
390.25	16636
390.50	16768
390.75	16940
391.00	16915
391.25	17171
391.50	17380
391.75	17323
392.00	17525
392.25	17662
392.50	17964
392.75	18094
393.00	18322
393.25	18377
393.50	18580
393.75	18697
394.00	18963
394.25	19093
394.50	19272
394.75	19401
395.00	19618
395.25	19833
395.50	19855
395.75	20033
396.00	20320
396.25	20551
396.50	20709
396.75	20904
397.00	21039
397.25	21112
397.50	21521
397.75	21603
398.00	21708
398.25	22059
398.50	22112
398.75	22220
399.00	22468
399.25	22751
399.50	22922
399.75	23080
400.00	23235
400.25	23343
400.50	23540
400.75	23726
401.00	23949
401.25	24070
401.50	24164
401.75	24493
402.00	24627
402.25	24832
402.50	24976
402.75	25194
403.00	25444
403.25	25613
403.50	25587
403.75	25939
404.00	26134
404.25	26402
404.50	26475
404.75	26642
405.00	26744
405.25	27063
405.50	27236
405.75	27458
406.00	27863
406.25	27872
406.50	28182
406.75	28145
407.00	28472
407.25	28646
407.50	28751
407.75	29148
408.00	29173
408.25	29531
408.50	29641
408.75	29862
409.00	30053
409.25	30305
409.50	30572
409.75	30648
410.00	30834
410.25	30927
410.50	31207
410.75	31550
411.00	31700
411.25	31889
411.50	32218
411.75	32412
412.00	32611
412.25	32536
412.50	32946
412.75	32847
413.00	33201
413.25	33433
413.50	33480
413.75	33777
414.00	34094
414.25	34189
414.50	34531
414.75	34833
415.00	34902
415.25	35083
415.50	35412
415.75	35562
416.00	35703
416.25	35776
416.50	36109
416.75	36428
417.00	36593
417.25	36890
417.50	37135
417.75	37283
418.00	37554
418.25	37583
418.50	37952
418.75	38207
419.00	38470
419.25	38635
419.50	38896
419.75	39039
420.00	39287
420.25	39639
420.50	39668
420.75	39879
421.00	40229
421.25	40292
421.50	40890
421.75	40969
422.00	41137
422.25	41201
422.50	41430
422.75	41650
423.00	42015
423.25	41928
423.50	42245
423.75	42500
424.00	42560
424.25	42820
424.50	42994
424.75	43210
425.00	43481
425.25	43764
425.50	43947
425.75	44055
426.00	44095
426.25	44354
426.50	44644
426.75	44806
427.00	44908
427.25	45163
427.50	45277
427.75	45193
428.00	45640
428.25	45650
428.50	46018
428.75	45867
429.00	46270
429.25	46262
429.50	46307
429.75	46861
430.00	46787
430.25	47019
430.50	47168
430.75	47144
431.00	47482
431.25	47723
431.50	47608
431.75	47929
432.00	48053
432.25	48029
432.50	48465
432.75	48536
433.00	48439
433.25	48778
433.50	48965
433.75	48808
434.00	49344
434.25	49318
434.50	49544
434.75	49347
435.00	49779
435.25	49813
435.50	50178
435.75	50041
436.00	50062
436.25	50453
436.50	50225
436.75	50194
437.00	50981
437.25	50687
437.50	50700
437.75	51047
438.00	51253
438.25	51294
438.50	51565
438.75	51453
439.00	51634
439.25	51827
439.50	51757
439.75	51904
440.00	52089
440.25	52188
440.50	52260
440.75	52273
441.00	52336
441.25	52437
441.50	52536
441.75	52893
442.00	52980
442.25	52652
442.50	52871
442.75	52783
443.00	53113
443.25	52973
443.50	53291
443.75	53478
444.00	53549
444.25	53355
444.50	53705
444.75	53568
445.00	53444
445.25	53309
445.50	53529
445.75	53834
446.00	53924
446.25	54078
446.50	53781
446.75	54021
447.00	53706
447.25	54183
447.50	54298
447.75	54301
448.00	54314
448.25	54342
448.50	54175
448.75	54423
449.00	54570
449.25	54647
449.50	54548
449.75	54792
450.00	54866
450.25	54994
450.50	54608
450.75	55000
451.00	54881
451.25	54980
451.50	54686
451.75	54669
452.00	54890
452.25	54860
452.50	54757
452.75	54793
453.00	54962
453.25	54687
453.50	54918
453.75	54942
454.00	54921
454.25	54874
454.50	54858
454.75	54837
455.00	54815
455.25	54947
455.50	54891
455.75	54770
456.00	54829
456.25	54787
456.50	54630
456.75	54668
457.00	54675
457.25	54477
457.50	54389
457.75	54357
458.00	54434
458.25	54454
458.50	54484
458.75	54296
459.00	54157
459.25	54346
459.50	53960
459.75	53754
460.00	53847
460.25	53841
460.50	53744
460.75	53666
461.00	53591
461.25	53400
461.50	53142
461.75	53199
462.00	53052
462.25	52785
462.50	52623
462.75	52635
463.00	52277
463.25	52326
463.50	52105
463.75	52104
464.00	51874
464.25	51693
464.50	51582
464.75	51178
465.00	51163
465.25	50752
465.50	50657
465.75	50451
466.00	50195
466.25	50129
466.50	49914
466.75	49530
467.00	49342
467.25	49017
467.50	48847
467.75	48672
468.00	48315
468.25	47996
468.50	47832
468.75	47514
469.00	47199
469.25	47150
469.50	46765
469.75	46491
470.00	46175
470.25	45736
470.50	45313
470.75	45047
471.00	44697
471.25	44302
471.50	44093
471.75	43970
472.00	43427
472.25	43041
472.50	42712
472.75	42361
473.00	41980
473.25	41725
473.50	41234
473.75	40781
474.00	40487
474.25	39936
474.50	39687
474.75	39253
475.00	38759
475.25	38213
475.50	37890
475.75	37463
476.00	36977
476.25	36507
476.50	36000
476.75	35532
477.00	35154
477.25	34645
477.50	34092
477.75	33756
478.00	33338
478.25	32857
478.50	32488
478.75	31973
479.00	31380
479.25	30975
479.50	30624
479.75	30129
480.00	29640
480.25	29224
480.50	28814
480.75	28432
481.00	27956
481.25	27603
481.50	27070
481.75	26739
482.00	26279
482.25	25880
482.50	25400
482.75	24939
483.00	24554
483.25	24190
483.50	23805
483.75	23364
484.00	22845
484.25	22544
484.50	22136
484.75	21606
485.00	21346
485.25	20966
485.50	20425
485.75	20100
486.00	19786
486.25	19402
486.50	18956
486.75	18580
487.00	18227
487.25	17844
487.50	17451
487.75	17169
488.00	16812
488.25	16473
488.50	16054
488.75	15710
489.00	15386
489.25	15015
489.50	14698
489.75	14383
490.00	14046
490.25	13772
490.50	13437
490.75	13125
491.00	12820
491.25	12479
491.50	12214
491.75	11987
492.00	11858
492.25	11572
492.50	11322
492.75	11038
493.00	10743
493.25	10514
493.50	10224
493.75	9969.2
494.00	9659.7
494.25	9424.5
494.50	9124.6
494.75	8939.9
495.00	8637.6
495.25	8352.7
495.50	8222.2
495.75	7914.4
496.00	7734.5
496.25	7548.1
496.50	7348.6
496.75	7061.7
497.00	6849.8
497.25	6630.6
497.50	6514.0
497.75	6199.9
498.00	6119.2
498.25	5918.8
498.50	5751.1
498.75	5538.1
499.00	5430.6
499.25	5212.4
499.50	5098.6
499.75	4923.6
500.00	4798.1
500.25	4564.9
500.50	4492.6
500.75	4316.8
501.00	4235.2
501.25	4084.4
501.50	3906.8
501.75	3784.6
502.00	3685.8
502.25	3518.8
502.50	3444.8
502.75	3365.1
503.00	3183.3
503.25	3183.3
503.50	3069.6
503.75	2932.0
504.00	2827.0
504.25	2779.2
504.50	2687.5
504.75	2562.9
505.00	2535.9
505.25	2392.9
505.50	2360.5
505.75	2244.3
506.00	2177.3
506.25	2064.1
506.50	2066.5
506.75	2038.6
507.00	1897.2
507.25	1892.2
507.50	1752.5
507.75	1809.9
508.00	1736.4
508.25	1620.8
508.50	1644.9
508.75	1595.0
509.00	1500.0
509.25	1419.3
509.50	1417.8
509.75	1408.3
510.00	1333.2
510.25	1348.5
510.50	1235.1
510.75	1182.4
511.00	1150.8
511.25	1066.7
511.50	1142.6
511.75	1029.7
512.00	1001.3
512.25	976.24
512.50	954.65
512.75	942.73
513.00	881.54
513.25	883.23
513.50	880.86
513.75	771.86
514.00	816.81
514.25	759.02
514.50	750.95
514.75	739.30
515.00	659.01
515.25	651.20
515.50	609.50
515.75	637.24
516.00	617.54
516.25	582.12
516.50	541.93
516.75	560.29
517.00	520.81
517.25	523.74
517.50	522.47
517.75	466.90
518.00	431.80
518.25	446.61
518.50	453.12
518.75	400.39
519.00	436.26
519.25	397.05
519.50	410.83
519.75	381.43
520.00	375.58
520.25	362.06
520.50	392.73
520.75	327.34
521.00	341.51
521.25	305.25
521.50	308.30
521.75	287.18
522.00	247.50
522.25	288.28
522.50	320.48
522.75	268.35
523.00	286.71
523.25	283.04
523.50	271.36
523.75	271.01
524.00	249.80
524.25	224.10
524.50	248.06
524.75	237.15
525.00	250.07
525.25	205.21
525.50	171.76
525.75	218.16
526.00	257.55
526.25	183.09
526.50	199.97
526.75	169.28
527.00	226.47
527.25	212.25
527.50	176.49
527.75	192.05
528.00	243.65
528.25	215.06
528.50	153.01
528.75	152.18
529.00	188.03
529.25	157.00
529.50	189.03
529.75	213.93
530.00	164.54
530.25	138.02
530.50	199.23
530.75	153.78
531.00	165.37
531.25	118.03
531.50	119.36
531.75	134.76
532.00	161.65
532.25	188.71
532.50	105.96
532.75	144.79
533.00	136.75
533.25	107.65
533.50	107.65
533.75	149.73
534.00	104.04
534.25	107.11
534.50	125.74
534.75	212.48
535.00	142.42
535.25	142.54
535.50	116.19
535.75	127.43
536.00	157.00
536.25	73.282
536.50	50.836
536.75	89.666
537.00	155.47
537.25	139.58
537.50	95.107
537.75	76.358
538.00	117.11
538.25	162.18
538.50	137.49
538.75	115.84
539.00	102.38
539.25	100.61
539.50	68.077
539.75	119.00
540.00	102.00
540.25	100.16
540.50	128.32
540.75	119.71
541.00	94.190
541.25	108.09
541.50	49.801
541.75	113.44
542.00	44.951
542.25	106.88
542.50	75.618
542.75	153.51
543.00	92.859
543.25	135.74
543.50	125.24
543.75	100.37
544.00	96.526
544.25	121.66
544.50	104.01
544.75	111.93
545.00	82.361
545.25	120.57
545.50	106.70
545.75	97.295
546.00	66.658
546.25	104.16
546.50	120.24
546.75	104.33
547.00	81.001
547.25	129.41
547.50	160.55
547.75	68.550
548.00	139.47
548.25	105.69
548.50	94.634
548.75	68.728
549.00	57.046
549.25	37.085
549.50	90.464
549.75	77.186
550.00	97.029
550.25	111.19
550.50	106.52
550.75	116.70
551.00	69.556
551.25	98.951
551.50	103.54
551.75	92.002
552.00	62.931
552.25	97.177
552.50	104.57
552.75	80.882
553.00	107.35
553.25	125.86
553.50	90.878
553.75	140.68
554.00	55.509
554.25	82.598
554.50	56.544
554.75	46.252
555.00	92.652
555.25	112.64
555.50	55.479
555.75	92.238
556.00	96.319
556.25	140.97
556.50	50.866
556.75	43.709
557.00	27.266
557.25	104.57
557.50	53.586
557.75	83.366
558.00	41.609
558.25	77.570
558.50	63.168
558.75	74.554
559.00	48.352
559.25	55.834
559.50	77.038
559.75	44.655
560.00	88.305
560.25	102.77
560.50	74.849
560.75	107.68
561.00	76.239
561.25	87.743
561.50	108.77
561.75	74.938
562.00	30.993
562.25	107.65
562.50	99.898
562.75	87.477
563.00	144.73
563.25	47.820
563.50	85.259
563.75	9.8183
564.00	45.010
564.25	71.212
564.50	94.959
564.75	113.80
565.00	50.747
565.25	63.257
565.50	87.714
565.75	133.94
566.00	45.572
566.25	31.821
566.50	75.766
566.75	33.418
567.00	52.137
567.25	99.780
567.50	117.82
567.75	54.621
568.00	64.203
568.25	73.371
568.50	42.142
568.75	100.31
569.00	71.242
569.25	54.533
569.50	53.616
569.75	1.5674
570.00	81.237
570.25	28.597
570.50	55.154
570.75	47.524
571.00	44.596
571.25	28.597
571.50	33.861
571.75	38.948
572.00	82.479
572.25	75.234
572.50	52.108
572.75	69.319
573.00	46.193
573.25	68.343
573.50	54.326
573.75	65.416
574.00	103.68
574.25	87.921
574.50	44.685
574.75	56.514
575.00	69.852
575.25	59.501
575.50	43.029
575.75	-28.006
576.00	59.885
576.25	67.634
576.50	89.488
576.75	54.592
577.00	49.269
577.25	47.110
577.50	94.456
577.75	67.013
578.00	114.09
578.25	19.075
578.50	74.968
578.75	22.890
579.00	49.417
579.25	57.283
579.50	112.53
579.75	61.423
580.00	37.647
580.25	31.998
580.50	29.159
580.75	36.257
581.00	60.388
581.25	7.7777
581.50	64.795
581.75	24.398
582.00	52.640
582.25	17.478
582.50	25.167
582.75	87.329
583.00	62.577
583.25	30.224
583.50	52.492
583.75	-31.081
584.00	35.517
584.25	54.828
584.50	57.253
584.75	56.307
585.00	13.870
585.25	27.473
585.50	84.609
585.75	23.304
586.00	40.338
586.25	96.083
586.50	65.356
586.75	51.812
587.00	89.961
587.25	24.989
587.50	51.221
587.75	13.130
588.00	-3.6079
588.25	51.221
588.50	82.331
588.75	65.238
589.00	3.7854
589.25	79.492
589.50	-1.9518
589.75	47.761
590.00	92.091
590.25	86.442
590.50	79.759
590.75	57.697
591.00	81.474
591.25	33.122
591.50	95.403
591.75	62.577
592.00	113.35
592.25	73.992
592.50	109.83
592.75	91.736
593.00	27.119
593.25	35.310
593.50	61.157
593.75	90.405
594.00	53.912
594.25	146.36
594.50	53.232
594.75	18.838
595.00	46.045
595.25	-35.754
595.50	10.232
595.75	92.919
596.00	41.018
596.25	5.9442
596.50	87.655
596.75	73.430
597.00	65.741
597.25	59.649
597.50	120.63
597.75	63.730
598.00	72.129
598.25	38.475
598.50	-13.130
598.75	102.47
599.00	4.4655
599.25	43.739
599.50	91.913
599.75	106.58
600.00	94.102
