Wavelength (nm)	I19 abs e
250.00	22782
250.28	23185
250.56	23570
250.83	24190
251.11	24677
251.39	25083
251.67	25318
251.94	25945
252.22	26281
252.50	26658
252.78	27107
253.06	27318
253.33	27605
253.61	27624
253.89	27384
254.17	27622
254.44	27695
254.72	27925
255.00	28412
255.28	28685
255.56	29102
255.83	29896
256.11	30522
256.39	31284
256.67	31733
256.94	32510
257.22	33174
257.50	33672
257.78	34369
258.06	34939
258.33	35528
258.61	36066
258.89	36757
259.17	37264
259.44	37551
259.72	37950
260.00	37991
260.28	38095
260.56	38239
260.83	38518
261.11	38622
261.39	38801
261.67	38730
261.94	38818
262.22	38835
262.50	38514
262.78	38091
263.06	37645
263.33	36775
263.61	35911
263.89	35127
264.17	33956
264.44	32914
264.72	31784
265.00	30480
265.28	29293
265.56	28000
265.83	26878
266.11	25626
266.39	24367
266.67	23161
266.94	22113
267.22	20942
267.50	19871
267.78	18973
268.06	17985
268.33	17102
268.61	16230
268.89	15538
269.17	14755
269.44	14118
269.72	13506
270.00	12908
270.28	12421
270.56	11919
270.83	11535
271.11	11038
271.39	10760
271.67	10319
271.94	10112
272.22	9665.3
272.50	9370.5
272.78	9198.0
273.06	8950.9
273.33	8689.1
273.61	8487.8
273.89	8255.2
274.17	8081.3
274.44	7946.1
274.72	7881.3
275.00	7735.2
275.28	7518.7
275.56	7393.0
275.83	7314.5
276.11	7111.7
276.39	7015.2
276.67	6946.5
276.94	6848.9
277.22	6804.8
277.50	6814.1
277.78	6694.1
278.06	6618.6
278.33	6511.9
278.61	6526.5
278.89	6406.1
279.17	6456.2
279.44	6365.0
279.72	6269.9
280.00	6260.6
280.28	6310.4
280.56	6231.4
280.83	6297.0
281.11	6165.7
281.39	6144.8
281.67	6025.1
281.94	6090.7
282.22	6054.7
282.50	6025.3
282.78	6082.8
283.06	6141.1
283.33	6016.1
283.61	6059.1
283.89	6080.4
284.17	6022.3
284.44	6049.9
284.72	6111.3
285.00	6011.2
285.28	6087.7
285.56	6155.8
285.83	6226.7
286.11	6124.6
286.39	6135.3
286.67	6287.4
286.94	6229.2
287.22	6264.2
287.50	6300.7
287.78	6335.7
288.06	6356.3
288.33	6447.9
288.61	6503.3
288.89	6402.2
289.17	6477.3
289.44	6436.7
289.72	6489.3
290.00	6543.7
290.28	6581.1
290.56	6616.8
290.83	6646.2
291.11	6663.6
291.39	6720.5
291.67	6803.6
291.94	6768.3
292.22	6911.3
292.50	6863.7
292.78	6764.0
293.06	6945.6
293.33	6915.2
293.61	6934.4
293.89	6948.7
294.17	6974.6
294.44	6978.3
294.72	6992.5
295.00	6994.5
295.28	7028.1
295.56	7069.8
295.83	7030.6
296.11	7123.6
296.39	7196.3
296.67	7152.5
296.94	7220.2
297.22	7255.9
297.50	7285.7
297.78	7239.1
298.06	7342.3
298.33	7375.9
298.61	7348.0
298.89	7383.0
299.17	7473.9
299.44	7423.8
299.72	7475.4
300.00	7452.7
300.28	7405.1
300.56	7504.1
300.83	7441.3
301.11	7486.5
301.39	7578.1
301.67	7552.3
301.94	7499.1
302.22	7487.3
302.50	7448.8
302.78	7514.4
303.06	7448.1
303.33	7486.7
303.61	7447.1
303.89	7437.5
304.17	7354.7
304.44	7436.5
304.72	7372.3
305.00	7339.8
305.28	7372.3
305.56	7258.9
305.83	7328.4
306.11	7205.5
306.39	7231.0
306.67	7137.7
306.94	7106.6
307.22	7016.4
307.50	7013.4
307.78	7004.8
308.06	6884.0
308.33	6907.4
308.61	6933.0
308.89	6754.5
309.17	6664.0
309.44	6631.5
309.72	6564.5
310.00	6597.0
310.28	6449.5
310.56	6444.8
310.83	6263.9
311.11	6162.1
311.39	6281.1
311.67	6154.4
311.94	6073.3
312.22	5991.6
312.50	6025.6
312.78	6004.6
313.06	5916.9
313.33	5847.5
313.61	5899.4
313.89	6097.9
314.17	5930.4
314.44	5565.5
314.72	5668.8
315.00	5596.9
315.28	5689.9
315.56	5690.4
315.83	5726.2
316.11	5624.7
316.39	5494.4
316.67	5626.9
316.94	5549.7
317.22	5540.7
317.50	5761.4
317.78	5533.0
318.06	5419.6
318.33	5624.5
318.61	5594.8
318.89	5449.4
319.17	5249.5
319.44	5118.5
319.72	5582.9
320.00	5475.2
320.28	5362.8
320.56	5365.1
320.83	5306.6
321.11	5326.1
321.39	5145.2
321.67	5300.1
321.94	5208.5
322.22	5395.1
322.50	5045.4
322.78	5257.0
323.06	5101.0
323.33	5201.1
323.61	4942.4
323.89	4802.0
324.17	4891.5
324.44	4798.8
324.72	4611.2
325.00	4778.1
325.28	4638.4
325.56	4782.7
325.83	4558.6
326.11	4669.2
326.39	4479.1
326.67	4331.3
326.94	4653.2
327.22	4239.5
327.50	4272.4
327.78	4241.0
328.06	4283.4
328.33	4138.7
328.61	4216.6
328.89	4262.8
329.17	4094.9
329.44	4052.9
329.72	3979.3
330.00	3941.5
330.28	3958.9
330.56	3916.6
330.83	4010.6
331.11	3990.1
331.39	3915.0
331.67	3586.8
331.94	3751.5
332.22	3764.7
332.50	3480.1
332.78	3283.3
333.06	3440.4
333.33	3236.6
333.61	3391.2
333.89	3536.6
334.17	3485.5
334.44	3208.9
334.72	3338.5
335.00	3445.3
335.28	3237.3
335.56	3271.6
335.83	2998.2
336.11	3162.2
336.39	3135.0
336.67	2995.6
336.94	2709.9
337.22	3047.3
337.50	2963.1
337.78	2825.8
338.06	2617.8
338.33	2804.0
338.61	2448.0
338.89	2560.7
339.17	2654.4
339.44	2438.7
339.72	2603.5
340.00	2609.7
340.28	2344.3
340.56	2297.8
340.83	2166.8
341.11	2052.3
341.39	2241.4
341.67	2085.8
341.94	2020.2
342.22	2012.7
342.50	2063.9
342.78	2020.4
343.06	1567.7
343.33	1740.2
343.61	1849.1
343.89	1788.8
344.17	1599.4
344.44	1585.2
344.72	1576.6
345.00	1575.0
345.28	1656.8
345.56	1306.0
345.83	1302.0
346.11	1513.2
346.39	1304.5
346.67	1157.4
346.94	1271.1
347.22	1176.4
347.50	1227.6
347.78	1085.7
348.06	1039.1
348.33	1063.9
348.61	1203.4
348.89	898.32
349.17	1038.5
349.44	931.41
349.72	915.78
350.00	878.00
350.28	805.75
350.56	929.38
350.83	727.36
351.11	715.95
351.39	674.29
351.67	675.54
351.94	716.18
352.22	726.22
352.50	749.27
352.78	515.96
353.06	671.59
353.33	550.11
353.61	663.54
353.89	717.19
354.17	589.02
354.44	625.44
354.72	634.07
355.00	675.77
355.28	496.61
355.56	638.17
355.83	555.73
356.11	639.97
356.39	549.78
356.67	586.20
356.94	493.55
357.22	502.19
357.50	551.62
357.78	574.67
358.06	506.29
358.33	642.58
358.61	533.75
358.89	428.80
359.17	504.25
359.44	509.72
359.72	451.89
360.00	317.74
360.28	494.48
360.56	433.48
360.83	471.31
361.11	401.52
361.39	492.79
361.67	497.91
361.94	486.15
362.22	361.15
362.50	279.40
362.78	394.24
363.06	306.17
363.33	254.67
363.61	282.29
363.89	225.51
364.17	275.65
364.44	189.68
364.72	322.46
365.00	321.95
365.28	267.28
365.56	274.16
365.83	315.50
366.11	266.10
366.39	285.64
366.67	175.06
366.94	309.24
367.22	271.45
367.50	205.53
367.78	176.54
368.06	228.43
368.33	183.26
368.61	281.22
368.89	232.53
369.17	126.87
369.44	277.93
369.72	59.386
370.00	193.92
370.28	246.51
370.56	189.74
370.83	184.66
371.11	227.40
371.39	310.94
371.67	291.09
371.94	271.94
372.22	173.32
372.50	267.76
372.78	213.45
373.06	279.05
373.33	347.12
373.61	273.46
373.89	230.05
374.17	220.40
374.44	276.86
374.72	307.65
375.00	319.45
375.28	213.09
375.56	357.47
375.83	232.11
376.11	253.76
376.39	250.08
376.67	225.31
376.94	178.03
377.22	339.99
377.50	421.07
377.78	343.90
378.06	456.28
378.33	326.00
378.61	284.70
378.89	257.46
379.17	310.41
379.44	394.30
379.72	320.64
380.00	274.06
380.28	342.13
380.56	327.20
380.83	348.85
381.11	350.10
381.39	302.82
381.67	251.32
381.94	358.07
382.22	391.67
382.50	446.73
382.78	399.09
383.06	477.71
383.33	430.43
383.61	356.77
383.89	404.09
384.17	395.14
384.44	415.03
384.72	387.44
385.00	356.69
385.28	248.22
385.56	427.41
385.83	487.39
386.11	438.35
386.39	465.62
386.67	439.09
386.94	448.78
387.22	496.80
387.50	432.99
387.78	484.18
388.06	466.79
388.33	413.53
388.61	465.07
388.89	489.88
389.17	477.76
389.44	530.36
389.72	360.70
390.00	478.70
390.28	473.27
390.56	509.33
390.83	495.11
391.11	611.00
391.39	525.39
391.67	564.97
391.94	446.65
392.22	542.85
392.50	583.49
392.78	629.40
393.06	522.69
393.33	437.78
393.61	479.47
393.89	613.30
394.17	602.94
394.44	579.93
394.72	592.43
395.00	470.24
395.28	667.72
395.56	530.77
395.83	502.47
396.11	612.04
396.39	548.58
396.67	644.43
396.94	738.17
397.22	772.48
397.50	649.58
397.78	717.30
398.06	711.16
398.33	696.59
398.61	747.07
398.89	669.90
399.17	669.04
399.44	718.82
399.72	673.65
400.00	729.05
400.28	823.14
400.56	866.59
400.83	764.45
401.11	814.23
401.39	849.59
401.67	911.33
401.94	765.58
402.22	784.77
402.50	846.85
402.78	810.12
403.06	903.16
403.33	911.44
403.61	799.10
403.89	944.18
404.17	978.14
404.44	959.69
404.72	1002.4
405.00	908.04
405.28	925.81
405.56	953.79
405.83	1015.9
406.11	1041.0
406.39	974.42
406.67	1097.3
406.94	1050.4
407.22	1056.9
407.50	1135.2
407.78	1054.2
408.06	992.11
408.33	1195.6
408.61	1080.1
408.89	1082.4
409.17	1140.9
409.44	1191.8
409.72	1232.1
410.00	1244.2
410.28	1296.1
410.56	1362.8
410.83	1263.4
411.11	1332.2
411.39	1285.3
411.67	1330.8
411.94	1348.6
412.22	1408.6
412.50	1384.9
412.78	1427.3
413.06	1444.7
413.33	1524.0
413.61	1438.8
413.89	1563.8
414.17	1494.0
414.44	1552.9
414.72	1504.2
415.00	1532.6
415.28	1550.3
415.56	1644.1
415.83	1564.1
416.11	1730.3
416.39	1652.1
416.67	1776.0
416.94	1679.9
417.22	1823.5
417.50	1795.6
417.78	1786.7
418.06	1861.1
418.33	1889.4
418.61	1934.6
418.89	2012.5
419.17	1922.0
419.44	2041.4
419.72	1955.1
420.00	2138.8
420.28	2123.2
420.56	2126.2
420.83	2138.0
421.11	2231.7
421.39	2233.0
421.67	2234.2
421.94	2340.3
422.22	2313.4
422.50	2420.9
422.78	2389.8
423.06	2594.6
423.33	2423.9
423.61	2561.6
423.89	2527.3
424.17	2558.1
424.44	2595.2
424.72	2624.6
425.00	2739.1
425.28	2729.5
425.56	2822.5
425.83	2848.4
426.11	2892.5
426.39	2957.4
426.67	2945.3
426.94	2990.9
427.22	3045.9
427.50	3172.7
427.78	3087.8
428.06	3255.4
428.33	3217.3
428.61	3196.0
428.89	3381.2
429.17	3349.0
429.44	3430.8
429.72	3459.5
430.00	3482.2
430.28	3549.5
430.56	3687.6
430.83	3679.3
431.11	3731.2
431.39	3803.2
431.67	3846.6
431.94	3954.4
432.22	3993.3
432.50	4055.7
432.78	4134.7
433.06	4159.9
433.33	4260.7
433.61	4303.8
433.89	4350.0
434.17	4367.4
434.44	4457.3
434.72	4551.4
435.00	4592.4
435.28	4632.7
435.56	4716.6
435.83	4820.5
436.11	4816.5
436.39	4937.6
436.67	5051.1
436.94	5036.9
437.22	5081.4
437.50	5213.8
437.78	5322.3
438.06	5418.8
438.33	5464.4
438.61	5489.6
438.89	5510.5
439.17	5627.1
439.44	5693.4
439.72	5717.2
440.00	5733.5
440.28	5957.1
440.56	6040.6
440.83	6079.8
441.11	6077.2
441.39	6242.3
441.67	6315.7
441.94	6392.2
442.22	6428.6
442.50	6587.4
442.78	6563.7
443.06	6643.7
443.33	6774.4
443.61	6847.0
443.89	7004.0
444.17	6989.5
444.44	7160.6
444.72	7180.1
445.00	7327.7
445.28	7306.0
445.56	7471.9
445.83	7549.8
446.11	7548.2
446.39	7669.8
446.67	7780.0
446.94	7938.5
447.22	8019.2
447.50	8095.3
447.78	8167.3
448.06	8238.9
448.33	8435.6
448.61	8499.8
448.89	8592.9
449.17	8680.6
449.44	8793.7
449.72	8927.9
450.00	8991.4
450.28	9095.7
450.56	9202.4
450.83	9268.0
451.11	9408.9
451.39	9485.1
451.67	9605.5
451.94	9757.6
452.22	9802.9
452.50	9870.6
452.78	10033
453.06	10207
453.33	10283
453.61	10330
453.89	10461
454.17	10686
454.44	10724
454.72	10783
455.00	10769
455.28	10968
455.56	11090
455.83	11150
456.11	11356
456.39	11460
456.67	11570
456.94	11672
457.22	11918
457.50	11852
457.78	12017
458.06	12107
458.33	12299
458.61	12471
458.89	12570
459.17	12730
459.44	12846
459.72	13043
460.00	13147
460.28	13209
460.56	13385
460.83	13570
461.11	13639
461.39	13734
461.67	13969
461.94	13946
462.22	14149
462.50	14321
462.78	14452
463.06	14617
463.33	14812
463.61	14813
463.89	15034
464.17	15129
464.44	15325
464.72	15385
465.00	15600
465.28	15728
465.56	15874
465.83	16008
466.11	16113
466.39	16295
466.67	16418
466.94	16628
467.22	16675
467.50	16763
467.78	16933
468.06	17114
468.33	17360
468.61	17361
468.89	17675
469.17	17755
469.44	17838
469.72	17969
470.00	18109
470.28	18284
470.56	18475
470.83	18551
471.11	18708
471.39	18894
471.67	19166
471.94	19201
472.22	19250
472.50	19498
472.78	19763
473.06	19788
473.33	19954
473.61	20056
473.89	20239
474.17	20441
474.44	20414
474.72	20682
475.00	20849
475.28	21053
475.56	21207
475.83	21358
476.11	21604
476.39	21696
476.67	21832
476.94	22039
477.22	22268
477.50	22370
477.78	22467
478.06	22636
478.33	22775
478.61	23028
478.89	23028
479.17	23157
479.44	23319
479.72	23629
480.00	23695
480.28	23934
480.56	24002
480.83	24094
481.11	24312
481.39	24417
481.67	24591
481.94	24765
482.22	24934
482.50	25186
482.78	25243
483.06	25437
483.33	25519
483.61	25768
483.89	25881
484.17	25907
484.44	26192
484.72	26366
485.00	26512
485.28	26672
485.56	26793
485.83	26962
486.11	27101
486.39	27324
486.67	27437
486.94	27790
487.22	27798
487.50	27997
487.78	28004
488.06	28337
488.33	28506
488.61	28543
488.89	28856
489.17	28965
489.44	29070
489.72	29290
490.00	29439
490.28	29553
490.56	29717
490.83	29907
491.11	30130
491.39	30234
491.67	30430
491.94	30534
492.22	30640
492.50	30810
492.78	30977
493.06	31161
493.33	31406
493.61	31491
493.89	31571
494.17	31754
494.44	31805
494.72	31907
495.00	32006
495.28	32072
495.56	32347
495.83	32437
496.11	32547
496.39	32773
496.67	32847
496.94	33007
497.22	33184
497.50	33249
497.78	33417
498.06	33504
498.33	33593
498.61	33837
498.89	33814
499.17	34037
499.44	34143
499.72	34347
500.00	34413
500.28	34580
500.56	34649
500.83	34836
501.11	34797
501.39	34857
501.67	35096
501.94	35164
502.22	35146
502.50	35350
502.78	35524
503.06	35572
503.33	35738
503.61	35695
503.89	35684
504.17	35849
504.44	36094
504.72	35990
505.00	36108
505.28	36134
505.56	36354
505.83	36415
506.11	36442
506.39	36423
506.67	36587
506.94	36627
507.22	36712
507.50	36693
507.78	36714
508.06	36833
508.33	36868
508.61	36910
508.89	36997
509.17	36941
509.44	37008
509.72	37013
510.00	37058
510.28	37194
510.56	37281
510.83	37235
511.11	37232
511.39	37329
511.67	37330
511.94	37464
512.22	37440
512.50	37529
512.78	37556
513.06	37494
513.33	37544
513.61	37518
513.89	37514
514.17	37635
514.44	37640
514.72	37724
515.00	37587
515.28	37765
515.56	37646
515.83	37726
516.11	37731
516.39	37723
516.67	37840
516.94	37735
517.22	37898
517.50	37839
517.78	37796
518.06	37825
518.33	37880
518.61	37890
518.89	37815
519.17	37840
519.44	38000
519.72	37953
520.00	37870
520.28	37809
520.56	37917
520.83	37854
521.11	37834
521.39	37768
521.67	37758
521.94	37890
522.22	37777
522.50	37762
522.78	37819
523.06	37828
523.33	37840
523.61	37701
523.89	37664
524.17	37609
524.44	37661
524.72	37553
525.00	37631
525.28	37557
525.56	37540
525.83	37478
526.11	37391
526.39	37416
526.67	37245
526.94	37238
527.22	37112
527.50	37214
527.78	36938
528.06	37032
528.33	37020
528.61	36946
528.89	36850
529.17	36697
529.44	36549
529.72	36524
530.00	36482
530.28	36342
530.56	36308
530.83	36111
531.11	36020
531.39	35840
531.67	35796
531.94	35618
532.22	35523
532.50	35400
532.78	35238
533.06	35005
533.33	34930
533.61	34815
533.89	34645
534.17	34690
534.44	34517
534.72	34448
535.00	34117
535.28	34062
535.56	33751
535.83	33638
536.11	33421
536.39	33257
536.67	33209
536.94	33021
537.22	32734
537.50	32512
537.78	32231
538.06	32006
538.33	31679
538.61	31562
538.89	31298
539.17	31021
539.44	30737
539.72	30595
540.00	30376
540.28	30139
540.56	29854
540.83	29632
541.11	29406
541.39	28945
541.67	28677
541.94	28345
542.22	28210
542.50	27840
542.78	27548
543.06	27243
543.33	26999
543.61	26753
543.89	26399
544.17	26154
544.44	25841
544.72	25537
545.00	25190
545.28	24849
545.56	24632
545.83	24289
546.11	23987
546.39	23577
546.67	23324
546.94	23131
547.22	22709
547.50	22447
547.78	22028
548.06	21880
548.33	21540
548.61	21160
548.89	20867
549.17	20619
549.44	20219
549.72	19997
550.00	19649
550.28	19372
550.56	19004
550.83	18695
551.11	18436
551.39	18081
551.67	17733
551.94	17385
552.22	17174
552.50	16880
552.78	16576
553.06	16270
553.33	16011
553.61	15571
553.89	15300
554.17	15077
554.44	14755
554.72	14470
555.00	14063
555.28	13647
555.56	13386
555.83	13139
556.11	12911
556.39	12599
556.67	12357
556.94	12105
557.22	11784
557.50	11554
557.78	11392
558.06	11111
558.33	10864
558.61	10676
558.89	10305
559.17	10141
559.44	9926.1
559.72	9740.6
560.00	9510.8
560.28	9361.5
560.56	9039.6
560.83	8757.4
561.11	8673.9
561.39	8367.4
561.67	8248.4
561.94	8017.2
562.22	7791.9
562.50	7640.9
562.78	7423.8
563.06	7355.4
563.33	7128.8
563.61	6942.6
563.89	6882.6
564.17	6561.7
564.44	6353.0
564.72	6198.5
565.00	6091.8
565.28	5842.6
565.56	5732.8
565.83	5522.3
566.11	5434.9
566.39	5340.9
566.67	5129.7
566.94	5075.8
567.22	4882.9
567.50	4695.6
567.78	4571.7
568.06	4388.3
568.33	4348.4
568.61	4275.5
568.89	4097.4
569.17	3911.5
569.44	3797.8
569.72	3707.9
570.00	3660.3
570.28	3536.4
570.56	3377.3
570.83	3224.1
571.11	3244.7
571.39	3027.6
571.67	2950.0
571.94	2814.8
572.22	2788.7
572.50	2755.5
572.78	2574.9
573.06	2510.0
573.33	2475.4
573.61	2370.4
573.89	2274.6
574.17	2330.0
574.44	2236.0
574.72	2152.5
575.00	2133.0
575.28	1929.6
575.56	1894.9
575.83	1821.3
576.11	1848.2
576.39	1741.5
576.67	1629.1
576.94	1671.2
577.22	1603.2
577.50	1523.5
577.78	1500.2
578.06	1440.2
578.33	1436.5
578.61	1354.1
578.89	1270.9
579.17	1222.3
579.44	1192.6
579.72	1157.6
580.00	1156.0
580.28	1239.9
580.56	1052.3
580.83	1047.9
581.11	896.56
581.39	965.33
581.67	931.06
581.94	847.56
582.22	872.02
582.50	858.50
582.78	855.17
583.06	783.98
583.33	724.04
583.61	574.42
583.89	638.27
584.17	632.48
584.44	592.23
584.72	599.46
585.00	601.41
585.28	593.87
585.56	565.23
585.83	576.68
586.11	599.38
586.39	453.63
586.67	632.47
586.94	452.61
587.22	470.74
587.50	456.16
587.78	536.19
588.06	425.25
588.33	420.17
588.61	425.64
588.89	327.02
589.17	369.06
589.44	296.11
589.72	363.82
590.00	419.93
590.28	360.70
590.56	327.83
590.83	309.74
591.11	275.12
591.39	208.85
591.67	231.20
591.94	258.82
592.22	329.00
592.50	277.85
592.78	307.94
593.06	206.85
593.33	333.64
593.61	240.65
593.89	286.56
594.17	210.09
594.44	233.84
594.72	234.74
595.00	301.40
595.28	245.33
595.56	192.77
595.83	170.81
596.11	180.85
596.39	181.05
596.67	193.55
596.94	188.82
597.22	211.87
597.50	171.98
597.78	252.70
598.06	156.89
598.33	171.86
598.61	144.97
598.89	83.272
599.17	94.368
599.44	158.92
599.72	43.061
600.00	103.39
600.28	130.66
600.56	208.58
600.83	173.61
601.11	106.28
601.39	136.72
601.67	25.431
601.94	54.111
602.22	96.154
602.50	72.435
602.78	119.40
603.06	156.87
603.33	50.159
603.61	92.906
603.89	62.154
604.17	115.10
604.44	68.521
604.72	72.935
605.00	67.151
605.28	172.85
605.56	106.58
605.83	86.724
606.11	60.543
606.39	72.343
606.67	66.207
606.94	88.205
607.22	126.03
607.50	118.49
607.78	143.30
608.06	159.32
608.33	93.748
608.61	132.98
608.89	87.807
609.17	75.693
609.44	78.701
609.72	40.563
610.00	99.838
610.28	29.346
610.56	84.401
610.83	34.307
611.11	47.864
611.39	67.049
611.67	55.990
611.94	30.864
612.22	103.85
612.50	114.25
612.78	66.966
613.06	148.75
613.33	44.496
613.61	67.901
613.89	122.25
614.17	60.552
614.44	176.45
614.72	12.762
615.00	133.23
615.28	78.913
615.56	171.25
615.83	68.400
616.11	61.561
616.39	46.282
616.67	71.445
616.94	111.38
617.22	-6.2375
617.50	118.10
617.78	97.543
618.06	34.084
618.33	62.412
618.61	46.782
618.89	97.968
619.17	56.665
619.44	96.950
619.72	91.870
620.00	93.471
620.28	137.98
620.56	98.431
620.83	75.415
621.11	58.378
621.39	65.605
621.67	96.395
621.94	100.81
622.22	65.133
622.50	59.701
622.78	130.58
623.06	55.518
623.33	78.219
623.61	101.27
623.89	87.400
624.17	45.745
624.44	89.547
624.72	95.368
625.00	142.69
625.28	146.40
625.56	67.465
625.83	57.110
626.11	31.280
626.39	29.365
626.67	143.50
626.94	-33.196
627.22	20.804
627.50	64.254
627.78	94.341
628.06	123.72
628.33	82.421
628.61	198.32
628.89	73.314
629.17	53.815
629.44	-3.6648
629.72	145.99
630.00	130.01
630.28	78.858
630.56	66.392
630.83	96.830
631.11	172.28
631.39	78.580
631.67	49.234
631.94	75.452
632.22	169.54
632.50	138.44
632.78	33.835
633.06	108.58
633.33	120.73
633.61	74.156
633.89	104.24
634.17	36.213
634.44	88.103
634.72	68.955
635.00	41.016
635.28	36.287
635.56	111.39
635.83	26.477
636.11	46.365
636.39	83.837
636.67	37.259
636.94	122.56
637.22	112.20
637.50	58.590
637.78	44.015
638.06	88.871
638.33	61.283
638.61	85.743
638.89	99.301
639.17	59.053
639.44	62.061
639.72	104.46
640.00	77.923
640.28	75.304
640.56	5.8672
640.83	74.989
641.11	110.00
641.39	109.14
641.67	48.142
641.94	159.46
642.22	101.98
642.50	95.849
642.78	105.54
643.06	79.358
643.33	17.306
643.61	56.184
643.89	44.774
644.17	97.015
644.44	87.714
644.72	58.368
645.00	48.364
645.28	70.362
645.56	-1.8880
645.83	10.263
646.11	119.48
646.39	56.018
646.67	85.401
646.94	30.383
647.22	55.546
647.50	122.56
647.78	64.023
648.06	38.897
648.33	111.18
648.61	109.97
648.89	19.083
649.17	43.894
649.44	76.794
649.72	-19.018
650.00	66.281
650.28	90.741
650.56	43.459
650.83	158.65
651.11	115.94
651.39	48.966
651.67	53.380
651.94	110.55
652.22	-3.5536
652.50	60.645
652.78	120.27
653.06	23.053
653.33	39.424
653.61	130.35
653.89	65.837
654.17	50.909
654.44	96.469
654.72	-36.972
655.00	81.384
655.28	-39.748
655.56	158.79
655.83	-10.523
656.11	151.44
656.39	90.796
656.67	63.560
656.94	159.76
657.22	-24.673
657.50	101.77
657.78	46.754
658.06	125.02
658.33	14.437
658.61	110.64
658.89	46.828
659.17	89.575
659.44	144.63
659.72	97.700
660.00	125.68
660.28	46.745
660.56	40.609
660.83	75.970
661.11	80.385
661.39	6.3763
661.67	39.276
661.94	138.64
662.22	89.251
662.50	34.584
662.78	98.079
663.06	100.03
663.33	47.828
663.61	126.80
663.89	26.061
664.17	49.114
664.44	46.495
664.72	43.524
665.00	8.1996
665.28	78.728
665.56	85.253
665.83	116.75
666.11	81.070
666.39	18.666
666.67	123.66
666.94	52.112
667.22	54.417
667.50	-53.352
667.78	58.674
668.06	32.493
668.33	85.086
668.61	98.292
668.89	127.32
669.17	165.85
669.44	82.699
669.72	70.232
670.00	63.042
670.28	-35.584
670.56	53.584
670.83	52.723
671.11	76.479
671.39	134.70
671.67	94.452
671.94	95.701
672.22	-8.5512
672.50	127.39
672.78	128.29
673.06	78.543
673.33	64.671
673.61	66.975
673.89	17.232
674.17	125.04
674.44	-38.647
674.72	65.290
675.00	96.432
675.28	85.373
675.56	83.809
675.83	8.0421
676.11	104.59
676.39	76.655
676.67	82.828
676.94	3.1928
677.22	-93.674
677.50	44.375
677.78	50.197
678.06	120.73
678.33	27.023
678.61	77.155
678.89	122.71
679.17	110.95
679.44	87.233
679.72	57.535
680.00	134.04
680.28	58.979
680.56	28.578
680.83	147.64
681.11	100.00
681.39	103.01
681.67	-32.187
681.94	-11.244
682.22	47.679
682.50	61.237
682.78	71.278
683.06	108.75
683.33	140.95
683.61	53.926
683.89	162.79
684.17	71.547
684.44	108.31
684.72	184.47
685.00	112.92
685.28	83.578
685.56	23.988
685.83	107.18
686.11	85.216
686.39	46.375
686.67	106.00
686.94	169.85
687.22	106.74
687.50	3.8961
687.78	76.887
688.06	108.03
688.33	175.74
688.61	46.523
688.89	36.870
689.17	146.79
689.44	149.79
689.72	97.941
690.00	52.066
690.28	140.18
690.56	81.644
690.83	124.74
691.11	100.67
691.39	66.049
691.67	151.35
691.94	162.80
692.22	126.77
692.50	147.01
692.78	111.68
693.06	92.536
693.33	118.05
693.61	92.573
693.89	92.416
694.17	112.66
694.44	143.45
694.72	143.99
695.00	185.68
695.28	154.23
695.56	183.26
695.83	50.521
696.11	54.583
696.39	159.93
696.67	93.304
696.94	133.59
697.22	114.09
697.50	89.667
697.78	117.29
698.06	181.49
698.33	101.86
698.61	193.13
698.89	196.14
699.17	188.60
699.44	144.48
699.72	82.430
700.00	75.943
