Wavelength (nm)	P04 abs e
350.00	11639
350.25	11946
350.50	12110
350.75	11627
351.00	11893
351.25	12088
351.50	12110
351.75	11816
352.00	11656
352.25	11452
352.50	11560
352.75	11599
353.00	11871
353.25	11759
353.50	11283
353.75	11422
354.00	11591
354.25	11404
354.50	11521
354.75	11253
355.00	11177
355.25	11379
355.50	11302
355.75	11030
356.00	10726
356.25	10860
356.50	11031
356.75	11105
357.00	11121
357.25	10463
357.50	10641
357.75	11070
358.00	10852
358.25	10787
358.50	10627
358.75	10711
359.00	10430
359.25	10224
359.50	10520
359.75	10209
360.00	10202
360.25	10428
360.50	10211
360.75	9927.4
361.00	9651.0
361.25	9683.4
361.50	9798.7
361.75	9860.8
362.00	9268.3
362.25	9683.4
362.50	9879.7
362.75	9470.0
363.00	9455.6
363.25	9244.0
363.50	9350.2
363.75	9215.2
364.00	8937.8
364.25	9290.8
364.50	9136.8
364.75	8895.5
365.00	8556.9
365.25	8699.2
365.50	8940.5
365.75	8618.2
366.00	8575.0
366.25	8429.1
366.50	8329.1
366.75	8321.9
367.00	8194.1
367.25	8151.7
367.50	8171.6
367.75	8181.5
368.00	7922.1
368.25	7701.5
368.50	7533.1
368.75	7706.0
369.00	7436.8
369.25	7605.2
369.50	7304.4
369.75	7248.6
370.00	7170.3
370.25	7011.8
370.50	6942.4
370.75	6639.9
371.00	7020.8
371.25	6806.5
371.50	6764.2
371.75	6896.5
372.00	6538.1
372.25	6424.7
372.50	6356.3
372.75	6356.3
373.00	6445.4
373.25	6445.4
373.50	6089.7
373.75	5915.9
374.00	6096.9
374.25	5891.6
374.50	5924.0
374.75	5843.0
375.00	5769.2
375.25	5832.2
375.50	5839.4
375.75	5495.4
376.00	5440.5
376.25	5235.2
376.50	5386.5
376.75	5218.1
377.00	5074.9
377.25	5110.0
377.50	4940.8
377.75	5052.4
378.00	4830.9
378.25	4709.3
378.50	4695.8
378.75	4486.9
379.00	4456.3
379.25	4877.7
379.50	4694.0
379.75	4377.1
380.00	4446.4
380.25	4463.5
380.50	4596.8
380.75	4034.9
381.00	4095.2
381.25	4227.6
381.50	4009.7
381.75	3916.0
382.00	3887.2
382.25	3924.1
382.50	3681.0
382.75	3745.9
383.00	3399.2
383.25	3749.5
383.50	3417.2
383.75	3380.3
384.00	3258.7
384.25	3325.4
384.50	3258.7
384.75	3249.7
385.00	3185.8
385.25	3204.7
385.50	3270.4
385.75	3116.4
386.00	3029.1
386.25	3173.2
386.50	2856.2
386.75	2876.9
387.00	2976.0
387.25	2667.1
387.50	2821.1
387.75	2738.3
388.00	2476.2
388.25	2556.4
388.50	2752.7
388.75	2559.1
389.00	2503.2
389.25	2541.1
389.50	2337.6
389.75	2532.1
390.00	2257.4
390.25	2254.7
390.50	2230.4
390.75	2174.6
391.00	2141.3
391.25	2114.3
391.50	1809.0
391.75	2081.8
392.00	1746.9
392.25	1933.3
392.50	1867.5
392.75	1862.1
393.00	1534.4
393.25	1663.1
393.50	1831.5
393.75	1878.3
394.00	1731.6
394.25	1504.6
394.50	1702.7
394.75	1659.5
395.00	1550.6
395.25	1465.0
395.50	1177.8
395.75	1446.1
396.00	1419.1
396.25	1265.1
396.50	1245.3
396.75	1031.9
397.00	1285.8
397.25	1266.0
397.50	1136.4
397.75	1242.6
398.00	1290.3
398.25	1306.5
398.50	1260.6
398.75	1193.1
399.00	1234.5
399.25	1238.1
399.50	782.49
399.75	955.37
400.00	1093.1
400.25	1205.7
400.50	930.16
400.75	967.08
401.00	781.59
401.25	1086.8
401.50	1245.3
401.75	1119.3
402.00	721.26
402.25	969.78
402.50	721.26
402.75	730.26
403.00	622.21
403.25	617.71
403.50	797.80
403.75	826.61
404.00	616.81
404.25	866.23
404.50	739.27
404.75	783.39
405.00	891.44
405.25	726.66
405.50	727.56
405.75	753.67
406.00	702.35
406.25	655.53
406.50	634.82
406.75	632.11
407.00	657.33
407.25	872.53
407.50	736.57
407.75	484.44
408.00	939.17
408.25	866.23
408.50	701.45
408.75	731.16
409.00	520.46
409.25	913.95
409.50	805.90
409.75	623.11
410.00	679.84
410.25	768.98
410.50	633.91
410.75	813.10
411.00	769.88
411.25	593.39
411.50	808.60
411.75	651.92
412.00	588.89
412.25	660.03
412.50	771.68
412.75	801.40
413.00	710.45
413.25	797.80
413.50	800.50
413.75	718.56
414.00	551.07
414.25	601.50
414.50	837.42
414.75	823.01
415.00	868.93
415.25	787.89
415.50	796.00
415.75	595.20
416.00	882.44
416.25	566.38
416.50	788.79
416.75	543.87
417.00	760.88
417.25	917.56
417.50	923.86
417.75	895.04
418.00	617.71
418.25	1040.9
418.50	803.20
418.75	749.17
419.00	848.22
419.25	769.88
419.50	769.88
419.75	879.74
420.00	834.71
420.25	800.50
420.50	830.21
420.75	890.54
421.00	924.76
421.25	901.35
421.50	615.01
421.75	1020.2
422.00	949.07
422.25	846.42
422.50	895.04
422.75	935.56
423.00	922.96
423.25	1052.6
423.50	985.99
423.75	907.65
424.00	923.86
424.25	1003.1
424.50	961.68
424.75	768.08
425.00	918.46
425.25	955.37
425.50	951.77
425.75	1053.5
426.00	991.39
426.25	1119.3
426.50	954.47
426.75	935.56
427.00	1067.9
427.25	1104.8
427.50	1130.1
427.75	914.85
428.00	1251.6
428.25	1039.1
428.50	1040.9
428.75	1013.0
429.00	1169.7
429.25	1274.1
429.50	1192.2
429.75	1122.0
430.00	1296.6
430.25	1312.9
430.50	930.16
430.75	1085.0
431.00	1019.3
431.25	939.17
431.50	1006.7
431.75	1230.0
432.00	1124.7
432.25	1369.6
432.50	1185.0
432.75	1103.9
433.00	1272.3
433.25	1140.0
433.50	1131.0
433.75	1178.7
434.00	1186.8
434.25	1203.0
434.50	1257.0
434.75	1218.3
435.00	1271.4
435.25	1281.3
435.50	1404.7
435.75	1194.9
436.00	1253.4
436.25	1391.2
436.50	1176.9
436.75	1519.1
437.00	1359.7
437.25	1266.9
437.50	1440.7
437.75	1446.1
438.00	1432.6
438.25	1475.8
438.50	1574.9
438.75	1715.4
439.00	1479.4
439.25	1325.5
439.50	1493.8
439.75	1660.4
440.00	1364.2
440.25	1404.7
440.50	1573.1
440.75	1700.0
441.00	1529.9
441.25	1506.4
441.50	1691.0
441.75	1610.0
442.00	1859.4
442.25	1700.0
442.50	1667.6
442.75	1851.3
443.00	1853.1
443.25	1706.3
443.50	1757.7
443.75	1782.0
444.00	1808.1
444.25	2029.6
444.50	1913.5
444.75	1863.9
445.00	2085.4
445.25	1933.3
445.50	1942.3
445.75	2024.2
446.00	2193.5
446.25	2092.6
446.50	2109.7
446.75	2227.7
447.00	2228.6
447.25	2062.9
447.50	2311.4
447.75	2370.0
448.00	2318.7
448.25	2258.3
448.50	2448.3
448.75	2475.3
449.00	2459.1
449.25	2487.9
449.50	2513.1
449.75	2501.4
450.00	2407.8
450.25	2510.4
450.50	2594.2
450.75	2710.3
451.00	2745.5
451.25	2615.8
451.50	2746.4
451.75	2805.8
452.00	2799.5
452.25	2848.1
452.50	2792.3
452.75	2961.6
453.00	2897.6
453.25	3023.7
453.50	2885.9
453.75	3190.3
454.00	3309.1
454.25	3165.1
454.50	3278.5
454.75	3029.1
455.00	3327.2
455.25	3135.4
455.50	3369.5
455.75	3382.1
456.00	3313.6
456.25	3340.7
456.50	3299.2
456.75	3588.3
457.00	3596.4
457.25	3329.9
457.50	3541.5
457.75	3570.3
458.00	3672.9
458.25	3577.5
458.50	3621.6
458.75	3741.4
459.00	3733.3
459.25	3798.1
459.50	3785.5
459.75	3859.3
460.00	3877.3
460.25	3897.1
460.50	3883.6
460.75	3872.8
461.00	3913.3
461.25	3854.8
461.50	4080.8
461.75	4119.5
462.00	4212.3
462.25	4360.9
462.50	4231.2
462.75	4444.6
463.00	4278.9
463.25	4446.4
463.50	4446.4
463.75	4646.3
464.00	4439.2
464.25	4498.6
464.50	4659.8
464.75	4560.8
465.00	4767.0
465.25	4803.9
465.50	4839.9
465.75	4895.7
466.00	5151.5
466.25	4918.2
466.50	4964.2
466.75	5370.3
467.00	4976.8
467.25	5265.8
467.50	5291.0
467.75	5232.5
468.00	5515.2
468.25	5763.8
468.50	5645.8
468.75	5881.7
469.00	6038.4
469.25	6132.0
469.50	6300.4
469.75	6275.2
470.00	6366.2
470.25	6522.8
470.50	6413.9
470.75	6549.0
471.00	6827.2
471.25	7020.8
471.50	7087.4
471.75	7288.2
472.00	7489.9
472.25	7538.5
472.50	7444.0
472.75	7908.6
473.00	7874.4
473.25	7901.4
473.50	8153.5
473.75	8523.6
474.00	8428.2
474.25	8684.8
474.50	8902.7
474.75	9000.9
475.00	9152.1
475.25	9262.0
475.50	9621.3
475.75	9680.7
476.00	9934.6
476.25	10316
476.50	10276
476.75	10648
477.00	10651
477.25	10939
477.50	11021
477.75	11329
478.00	11389
478.25	11453
478.50	11789
478.75	11843
479.00	12245
479.25	12286
479.50	12462
479.75	12473
480.00	12772
480.25	13031
480.50	13030
480.75	13201
481.00	13321
481.25	13546
481.50	13590
481.75	13870
482.00	14053
482.25	14107
482.50	14413
482.75	14264
483.00	14350
483.25	14559
483.50	14759
483.75	14982
484.00	14981
484.25	14997
484.50	15325
484.75	15259
485.00	15279
485.25	15588
485.50	15834
485.75	15622
486.00	15750
486.25	16050
486.50	15966
486.75	15930
487.00	16017
487.25	15978
487.50	16141
487.75	16140
488.00	16173
488.25	16349
488.50	16536
488.75	16324
489.00	16235
489.25	16541
489.50	16567
489.75	16407
490.00	16328
490.25	16491
490.50	16604
490.75	16610
491.00	16412
491.25	16768
491.50	16768
491.75	16948
492.00	16803
492.25	16792
492.50	17148
492.75	16979
493.00	16949
493.25	17052
493.50	16935
493.75	17152
494.00	17401
494.25	17559
494.50	17406
494.75	17706
495.00	17729
495.25	17720
495.50	17633
495.75	17942
496.00	18136
496.25	18295
496.50	18692
496.75	18762
497.00	18849
497.25	18986
497.50	19368
497.75	19355
498.00	19761
498.25	19713
498.50	20283
498.75	20756
499.00	20878
499.25	21233
499.50	21415
499.75	21730
500.00	22364
500.25	22636
500.50	22971
500.75	23570
501.00	23858
501.25	24151
501.50	24716
501.75	25193
502.00	25679
502.25	26282
502.50	26843
502.75	27438
503.00	28125
503.25	28579
503.50	29118
503.75	29882
504.00	30572
504.25	31110
504.50	31721
504.75	32537
505.00	33442
505.25	34139
505.50	34918
505.75	35620
506.00	36130
506.25	37203
506.50	37989
506.75	38726
507.00	39547
507.25	40345
507.50	41098
507.75	41927
508.00	42814
508.25	43515
508.50	44601
508.75	45374
509.00	46143
509.25	46943
509.50	47685
509.75	48621
510.00	49178
510.25	49891
510.50	50647
510.75	51313
511.00	52032
511.25	52789
511.50	53456
511.75	54291
512.00	54986
512.25	55380
512.50	55785
512.75	56305
513.00	57193
513.25	57316
513.50	57460
513.75	57754
514.00	58391
514.25	58498
514.50	58734
514.75	58746
515.00	58864
515.25	58925
515.50	59000
515.75	58776
516.00	58582
516.25	58392
516.50	58151
516.75	57885
517.00	57830
517.25	57232
517.50	56963
517.75	56521
518.00	55936
518.25	55613
518.50	54803
518.75	54199
519.00	53572
519.25	52787
519.50	52445
519.75	51845
520.00	51098
520.25	50443
520.50	49271
520.75	48947
521.00	48060
521.25	47086
521.50	46340
521.75	45648
522.00	44828
522.25	43825
522.50	43133
522.75	42280
523.00	41206
523.25	40444
523.50	39442
523.75	38363
524.00	37697
524.25	36878
524.50	35931
524.75	35017
525.00	34160
525.25	33338
525.50	32618
525.75	31513
526.00	30641
526.25	29709
526.50	29206
526.75	28311
527.00	27372
527.25	26523
527.50	25484
527.75	25152
528.00	24110
528.25	23262
528.50	22814
528.75	22217
529.00	21582
529.25	20357
529.50	19829
529.75	19232
530.00	18361
530.25	17795
530.50	17229
530.75	16738
531.00	16257
531.25	15467
531.50	15004
531.75	14379
532.00	13960
532.25	13362
532.50	12812
532.75	12394
533.00	12251
533.25	11537
533.50	11079
533.75	10697
534.00	10253
534.25	10207
534.50	9819.4
534.75	9510.5
535.00	9172.0
535.25	8921.6
535.50	8430.9
535.75	8220.2
536.00	7726.7
536.25	7491.7
536.50	7200.9
536.75	6766.9
537.00	6655.2
537.25	6383.3
537.50	6112.2
537.75	5833.1
538.00	5651.2
538.25	5321.6
538.50	5292.8
538.75	4950.7
539.00	4716.5
539.25	4731.8
539.50	4376.2
539.75	4281.6
540.00	4158.3
540.25	3763.9
540.50	3728.8
540.75	3592.8
541.00	3433.4
541.25	3247.0
541.50	3057.0
541.75	3016.5
542.00	2939.1
542.25	2777.0
542.50	2726.6
542.75	2676.1
543.00	2512.2
543.25	2334.0
543.50	2152.1
543.75	2233.1
544.00	2063.8
544.25	2132.3
544.50	1948.6
544.75	2123.3
545.00	1670.3
545.25	1830.6
545.50	1687.4
545.75	1664.0
546.00	1781.1
546.25	1319.2
546.50	1523.6
546.75	1425.4
547.00	1453.3
547.25	1512.8
547.50	1426.3
547.75	1439.8
548.00	1183.2
548.25	1266.9
548.50	1148.1
548.75	1216.5
549.00	1091.3
549.25	1084.1
549.50	898.65
549.75	1165.2
550.00	894.14
550.25	837.42
550.50	920.26
550.75	913.95
551.00	604.20
551.25	892.34
551.50	802.30
551.75	738.37
552.00	620.41
552.25	666.33
552.50	593.39
552.75	555.58
553.00	557.38
553.25	727.56
553.50	815.81
553.75	542.97
554.00	452.02
554.25	684.34
554.50	540.27
554.75	443.02
555.00	767.18
555.25	411.50
555.50	622.21
555.75	575.39
556.00	611.40
556.25	434.92
556.50	458.33
556.75	499.75
557.00	536.67
557.25	386.29
557.50	467.33
557.75	636.62
558.00	524.06
558.25	439.42
558.50	470.03
558.75	331.36
559.00	470.03
559.25	318.76
559.50	293.55
559.75	383.59
560.00	752.77
560.25	265.63
560.50	478.14
560.75	300.75
561.00	651.02
561.25	427.71
561.50	430.41
561.75	456.53
562.00	321.46
562.25	552.87
562.50	185.49
562.75	333.17
563.00	470.03
563.25	578.99
563.50	446.62
563.75	155.78
564.00	443.92
564.25	265.63
564.50	521.36
564.75	295.35
565.00	361.98
565.25	465.53
565.50	398.90
565.75	447.52
566.00	258.43
566.25	287.24
566.50	162.08
566.75	307.05
567.00	340.37
567.25	398.00
567.50	175.59
567.75	284.54
568.00	378.19
568.25	156.68
568.50	163.88
568.75	302.55
569.00	453.83
569.25	377.29
569.50	570.88
569.75	292.65
570.00	329.56
570.25	-15.308
570.50	201.70
570.75	252.13
571.00	-143.17
571.25	94.547
571.50	108.05
571.75	53.126
572.00	99.950
572.25	262.93
572.50	74.737
572.75	131.47
573.00	50.425
573.25	32.416
573.50	44.122
573.75	43.221
574.00	93.647
574.25	-77.438
574.50	215.21
574.75	90.045
575.00	61.230
575.25	331.36
575.50	59.430
575.75	-3.6018
576.00	2.7013
576.25	106.25
576.50	289.04
576.75	227.81
577.00	96.348
577.25	162.08
577.50	93.647
577.75	-99.049
578.00	78.339
578.25	-106.25
578.50	244.02
578.75	161.18
579.00	45.923
579.25	46.823
579.50	78.339
579.75	195.40
580.00	11.706
580.25	344.87
580.50	46.823
580.75	162.08
581.00	45.923
581.25	91.846
581.50	131.47
581.75	156.68
582.00	118.86
582.25	71.135
582.50	72.936
582.75	224.21
583.00	99.049
583.25	23.412
583.50	186.39
583.75	167.48
584.00	-36.918
584.25	165.68
584.50	200.80
584.75	-100.85
585.00	132.37
585.25	338.57
585.50	103.55
585.75	175.59
586.00	0.90044
586.25	300.75
586.50	100.85
586.75	252.13
587.00	161.18
587.25	66.633
587.50	61.230
587.75	81.941
588.00	20.710
588.25	253.03
588.50	142.27
588.75	81.040
589.00	255.73
589.25	-147.67
589.50	-51.325
589.75	89.144
590.00	-57.629
590.25	135.97
590.50	-36.018
590.75	160.28
591.00	116.16
591.25	240.42
591.50	231.41
591.75	18.009
592.00	146.77
592.25	112.56
592.50	72.036
592.75	229.61
593.00	188.19
593.25	94.547
593.50	20.710
593.75	-142.27
594.00	-54.027
594.25	238.62
594.50	187.29
594.75	216.11
595.00	152.18
595.25	231.41
595.50	-221.51
595.75	10.805
596.00	-42.321
596.25	118.86
596.50	171.99
596.75	27.013
597.00	2.7013
597.25	-20.710
597.50	210.70
597.75	-16.208
598.00	255.73
598.25	101.75
598.50	162.08
598.75	174.69
599.00	329.56
599.25	300.75
599.50	151.28
599.75	179.19
600.00	51.325
