Wavelength (nm)	"177, CC 2015_5906, 3b"
200.00	
201.00	
202.00	
203.00	
204.00	
205.00	
206.00	
207.00	
208.00	
209.00	
210.00	
211.00	
212.00	
213.00	
214.00	
215.00	
216.00	
217.00	
218.00	
219.00	
220.00	
221.00	
222.00	
223.00	
224.00	
225.00	
226.00	
227.00	
228.00	
229.00	
230.00	
231.00	
232.00	
233.00	
234.00	
235.00	
236.00	
237.00	
238.00	
239.00	
240.00	
241.00	
242.00	
243.00	
244.00	
245.00	
246.00	
247.00	
248.00	
249.00	
250.00	0.50832
251.00	0.50616
252.00	0.50399
253.00	0.50183
254.00	0.49966
255.00	0.49750
256.00	0.49533
257.00	0.49317
258.00	0.49100
259.00	0.48681
260.00	0.48257
261.00	0.47833
262.00	0.47410
263.00	0.46986
264.00	0.46562
265.00	0.46139
266.00	0.45731
267.00	0.45327
268.00	0.44922
269.00	0.44518
270.00	0.44114
271.00	0.43888
272.00	0.43888
273.00	0.43888
274.00	0.43888
275.00	0.43888
276.00	0.43888
277.00	0.43888
278.00	0.43888
279.00	0.43888
280.00	0.43888
281.00	0.43888
282.00	0.43888
283.00	0.43888
284.00	0.43888
285.00	0.43888
286.00	0.43888
287.00	0.43888
288.00	0.43888
289.00	0.43888
290.00	0.43885
291.00	0.43714
292.00	0.43543
293.00	0.43372
294.00	0.43201
295.00	0.43030
296.00	0.42239
297.00	0.41409
298.00	0.40578
299.00	0.39747
300.00	0.39732
301.00	0.39975
302.00	0.40217
303.00	0.40460
304.00	0.40702
305.00	0.41138
306.00	0.41876
307.00	0.42614
308.00	0.43352
309.00	0.44090
310.00	0.44828
311.00	0.45642
312.00	0.46527
313.00	0.47412
314.00	0.48297
315.00	0.49183
316.00	0.50068
317.00	0.50942
318.00	0.51814
319.00	0.52685
320.00	0.53557
321.00	0.54428
322.00	0.55065
323.00	0.55646
324.00	0.56227
325.00	0.56808
326.00	0.57389
327.00	0.57490
328.00	0.57493
329.00	0.57496
330.00	0.57499
331.00	0.57030
332.00	0.56561
333.00	0.56092
334.00	0.55582
335.00	0.54775
336.00	0.53967
337.00	0.53160
338.00	0.52353
339.00	0.51323
340.00	0.50168
341.00	0.49013
342.00	0.47858
343.00	0.46670
344.00	0.45423
345.00	0.44176
346.00	0.42929
347.00	0.41681
348.00	0.40428
349.00	0.39175
350.00	0.37922
351.00	0.36669
352.00	0.35557
353.00	0.34626
354.00	0.33695
355.00	0.32764
356.00	0.31833
357.00	0.30974
358.00	0.30321
359.00	0.29667
360.00	0.29014
361.00	0.28394
362.00	0.28053
363.00	0.27711
364.00	0.27369
365.00	0.27310
366.00	0.27456
367.00	0.27602
368.00	0.27747
369.00	0.28106
370.00	0.28737
371.00	0.29368
372.00	0.29998
373.00	0.30629
374.00	0.31353
375.00	0.32126
376.00	0.32899
377.00	0.33672
378.00	0.34444
379.00	0.35217
380.00	0.35992
381.00	0.36809
382.00	0.37626
383.00	0.38443
384.00	0.39260
385.00	0.40077
386.00	0.40894
387.00	0.41770
388.00	0.42739
389.00	0.43708
390.00	0.44677
391.00	0.45646
392.00	0.46616
393.00	0.47572
394.00	0.48465
395.00	0.49359
396.00	0.50252
397.00	0.51146
398.00	0.52039
399.00	0.52931
400.00	0.53822
401.00	0.54714
402.00	0.55606
403.00	0.56388
404.00	0.57141
405.00	0.57894
406.00	0.58648
407.00	0.59181
408.00	0.59690
409.00	0.60188
410.00	0.60125
411.00	0.60062
412.00	0.59999
413.00	0.59702
414.00	0.59406
415.00	0.59038
416.00	0.58089
417.00	0.57140
418.00	0.56192
419.00	0.55055
420.00	0.53871
421.00	0.52687
422.00	0.51504
423.00	0.50330
424.00	0.49158
425.00	0.47986
426.00	0.46788
427.00	0.45451
428.00	0.44114
429.00	0.42776
430.00	0.41405
431.00	0.40006
432.00	0.38607
433.00	0.37208
434.00	0.35876
435.00	0.34577
436.00	0.33279
437.00	0.31980
438.00	0.30848
439.00	0.29810
440.00	0.28771
441.00	0.27732
442.00	0.26706
443.00	0.25689
444.00	0.24671
445.00	0.23653
446.00	0.22720
447.00	0.21993
448.00	0.21267
449.00	0.20540
450.00	0.19813
451.00	0.19305
452.00	0.18805
453.00	0.18304
454.00	0.17803
455.00	0.17563
456.00	0.17392
457.00	0.17221
458.00	0.17051
459.00	0.16880
460.00	0.16753
461.00	0.16632
462.00	0.16511
463.00	0.16389
464.00	0.16268
465.00	0.16351
466.00	0.16516
467.00	0.16682
468.00	0.16848
469.00	0.17014
470.00	0.17240
471.00	0.17496
472.00	0.17753
473.00	0.18010
474.00	0.18267
475.00	0.18502
476.00	0.18732
477.00	0.18961
478.00	0.19190
479.00	0.19419
480.00	0.19649
481.00	0.19881
482.00	0.20112
483.00	0.20343
484.00	0.20575
485.00	0.20806
486.00	0.21038
487.00	0.21616
488.00	0.22209
489.00	0.22802
490.00	0.23395
491.00	0.23988
492.00	0.24581
493.00	0.25174
494.00	0.25830
495.00	0.26493
496.00	0.27156
497.00	0.27819
498.00	0.28482
499.00	0.29145
500.00	0.29808
501.00	0.30470
502.00	0.31243
503.00	0.32065
504.00	0.32887
505.00	0.33709
506.00	0.34531
507.00	0.35352
508.00	0.36174
509.00	0.36998
510.00	0.37865
511.00	0.38732
512.00	0.39599
513.00	0.40465
514.00	0.41332
515.00	0.42199
516.00	0.43066
517.00	0.43932
518.00	0.44862
519.00	0.45804
520.00	0.46745
521.00	0.47687
522.00	0.48629
523.00	0.49570
524.00	0.50512
525.00	0.51467
526.00	0.52637
527.00	0.53807
528.00	0.54977
529.00	0.56147
530.00	0.57317
531.00	0.58487
532.00	0.59678
533.00	0.60895
534.00	0.62113
535.00	0.63330
536.00	0.64547
537.00	0.65777
538.00	0.67106
539.00	0.68435
540.00	0.69764
541.00	0.71093
542.00	0.72408
543.00	0.73543
544.00	0.74678
545.00	0.75813
546.00	0.76948
547.00	0.78075
548.00	0.79191
549.00	0.80308
550.00	0.81424
551.00	0.82195
552.00	0.82825
553.00	0.83455
554.00	0.84085
555.00	0.84710
556.00	0.85326
557.00	0.85943
558.00	0.86560
559.00	0.87177
560.00	0.87733
561.00	0.88254
562.00	0.88775
563.00	0.89297
564.00	0.89818
565.00	0.90339
566.00	0.90861
567.00	0.91382
568.00	0.91903
569.00	0.92424
570.00	0.92946
571.00	0.93467
572.00	0.93988
573.00	0.94498
574.00	0.94992
575.00	0.95485
576.00	0.95978
577.00	0.96471
578.00	0.96964
579.00	0.97458
580.00	0.97951
581.00	0.98438
582.00	0.98923
583.00	0.99408
584.00	0.99590
585.00	0.99661
586.00	0.99731
587.00	0.99800
588.00	0.99867
589.00	0.99933
590.00	1.0000
591.00	0.99675
592.00	0.99350
593.00	0.99025
594.00	0.98520
595.00	0.97919
596.00	0.97318
597.00	0.96718
598.00	0.95887
599.00	0.94799
600.00	0.93710
601.00	0.92618
602.00	0.91219
603.00	0.89820
604.00	0.88420
605.00	0.86923
606.00	0.85162
607.00	0.83400
608.00	0.81638
609.00	0.79860
610.00	0.78023
611.00	0.76186
612.00	0.74349
613.00	0.72513
614.00	0.70676
615.00	0.68923
616.00	0.67196
617.00	0.65470
618.00	0.63743
619.00	0.62017
620.00	0.60290
621.00	0.58564
622.00	0.56990
623.00	0.55443
624.00	0.53896
625.00	0.52349
626.00	0.50802
627.00	0.49255
628.00	0.47768
629.00	0.46496
630.00	0.45224
631.00	0.43951
632.00	0.42679
633.00	0.41407
634.00	0.40135
635.00	0.38899
636.00	0.37743
637.00	0.36588
638.00	0.35432
639.00	0.34277
640.00	0.33121
641.00	0.31966
642.00	0.30942
643.00	0.29922
644.00	0.28902
645.00	0.27883
646.00	0.26863
647.00	0.25843
648.00	0.24823
649.00	0.23804
650.00	0.22922
651.00	0.22084
652.00	0.21245
653.00	0.20407
654.00	0.19569
655.00	0.18730
656.00	0.17892
657.00	0.17084
658.00	0.16357
659.00	0.15630
660.00	0.14903
661.00	0.14177
662.00	0.13450
663.00	0.12723
664.00	0.12005
665.00	0.11407
666.00	0.10809
667.00	0.10211
668.00	0.096129
669.00	0.090148
670.00	0.084167
671.00	0.078187
672.00	0.073791
673.00	0.070012
674.00	0.066233
675.00	0.062454
676.00	0.058674
677.00	0.054895
678.00	0.051116
679.00	0.047474
680.00	0.043959
681.00	0.040444
682.00	0.036928
683.00	0.033413
684.00	0.029898
685.00	0.026383
686.00	0.023223
687.00	0.021799
688.00	0.020375
689.00	0.018951
690.00	0.017527
691.00	0.016103
692.00	0.014679
693.00	0.013255
694.00	0.012428
695.00	0.012108
696.00	0.011789
697.00	0.011469
698.00	0.011150
699.00	0.010831
700.00	0.010511
701.00	0.010192
702.00	0.0098724
703.00	0.0095530
704.00	0.0092336
705.00	0.0089142
706.00	0.0085948
707.00	0.0082754
708.00	0.0079560
709.00	0.0076366
710.00	0.0073172
711.00	0.0070198
712.00	0.0067412
713.00	0.0064626
714.00	0.0061840
715.00	0.0059054
716.00	0.0056267
717.00	0.0053481
718.00	0.0050695
719.00	0.0048183
720.00	0.0045671
721.00	0.0043159
722.00	0.0040647
723.00	0.0038135
724.00	0.0035623
725.00	0.0032195
726.00	0.0028077
727.00	0.0023958
728.00	0.0019839
729.00	0.0015721
730.00	0.0011602
731.00	0.0011602
732.00	0.0011602
733.00	0.0011601
734.00	0.0011601
735.00	0.0011601
736.00	0.0011601
737.00	0.0011601
738.00	0.0011600
739.00	0.0011600
740.00	0.0011600
741.00	0.0011600
742.00	0.0011600
743.00	0.0011599
744.00	0.0011599
745.00	0.0011599
746.00	0.0011599
747.00	0.0011599
748.00	0.0011598
749.00	0.0011598
750.00	0.0011598
751.00	0.0011598
752.00	0.0011598
753.00	0.0011598
754.00	0.0011598
755.00	0.0011598
756.00	0.0011598
757.00	0.0011598
758.00	0.0011598
759.00	0.0011598
760.00	0.0011598
761.00	0.0011598
762.00	0.0011598
763.00	0.0011598
764.00	0.0011598
765.00	0.0011598
766.00	0.0011598
767.00	0.0011598
768.00	0.0011598
769.00	0.0011598
770.00	0.0011598
771.00	0.0011598
772.00	0.0011598
773.00	0.0011598
774.00	0.0011598
775.00	0.0011598
776.00	0.0011598
777.00	0.0011598
778.00	0.0011598
779.00	0.0011598
780.00	0.0011598
781.00	0.0011598
782.00	0.0011598
783.00	0.0011598
784.00	0.0011598
785.00	0.0011598
786.00	0.0011598
787.00	0.0011598
788.00	0.0011598
789.00	0.0011598
790.00	0.0011598
791.00	0.0011598
792.00	0.0011598
793.00	0.0011598
794.00	0.0011598
795.00	0.0011598
796.00	0.0011598
797.00	0.0011598
798.00	0.0011598
799.00	0.0011598
800.00	0.0011598
801.00	
802.00	
803.00	
804.00	
805.00	
806.00	
807.00	
808.00	
809.00	
810.00	
811.00	
812.00	
813.00	
814.00	
815.00	
816.00	
817.00	
818.00	
819.00	
820.00	
821.00	
822.00	
823.00	
824.00	
825.00	
826.00	
827.00	
828.00	
829.00	
830.00	
831.00	
832.00	
833.00	
834.00	
835.00	
836.00	
837.00	
838.00	
839.00	
840.00	
841.00	
842.00	
843.00	
844.00	
845.00	
846.00	
847.00	
848.00	
849.00	
850.00	
851.00	
852.00	
853.00	
854.00	
855.00	
856.00	
857.00	
858.00	
859.00	
860.00	
861.00	
862.00	
863.00	
864.00	
865.00	
866.00	
867.00	
868.00	
869.00	
870.00	
871.00	
872.00	
873.00	
874.00	
875.00	
876.00	
877.00	
878.00	
879.00	
880.00	
881.00	
882.00	
883.00	
884.00	
885.00	
886.00	
887.00	
888.00	
889.00	
890.00	
891.00	
892.00	
893.00	
894.00	
895.00	
896.00	
897.00	
898.00	
899.00	
900.00	
901.00	
902.00	
903.00	
904.00	
905.00	
906.00	
907.00	
908.00	
909.00	
910.00	
911.00	
912.00	
913.00	
914.00	
915.00	
916.00	
917.00	
918.00	
919.00	
920.00	
921.00	
922.00	
923.00	
924.00	
925.00	
926.00	
927.00	
928.00	
929.00	
930.00	
931.00	
932.00	
933.00	
934.00	
935.00	
936.00	
937.00	
938.00	
939.00	
940.00	
941.00	
942.00	
943.00	
944.00	
945.00	
946.00	
947.00	
948.00	
949.00	
950.00	
951.00	
952.00	
953.00	
954.00	
955.00	
956.00	
957.00	
958.00	
959.00	
960.00	
961.00	
962.00	
963.00	
964.00	
965.00	
966.00	
967.00	
968.00	
969.00	
970.00	
971.00	
972.00	
973.00	
974.00	
975.00	
976.00	
977.00	
978.00	
979.00	
980.00	
981.00	
982.00	
983.00	
984.00	
985.00	
986.00	
987.00	
988.00	
989.00	
990.00	
991.00	
992.00	
993.00	
994.00	
995.00	
996.00	
997.00	
998.00	
999.00	
1000.0	
1001.0	
1002.0	
1003.0	
1004.0	
1005.0	
1006.0	
1007.0	
1008.0	
1009.0	
1010.0	
1011.0	
1012.0	
1013.0	
1014.0	
1015.0	
1016.0	
1017.0	
1018.0	
1019.0	
1020.0	
1021.0	
1022.0	
1023.0	
1024.0	
1025.0	
1026.0	
1027.0	
1028.0	
1029.0	
1030.0	
1031.0	
1032.0	
1033.0	
1034.0	
1035.0	
1036.0	
1037.0	
1038.0	
1039.0	
1040.0	
1041.0	
1042.0	
1043.0	
1044.0	
1045.0	
1046.0	
1047.0	
1048.0	
1049.0	
1050.0	
1051.0	
1052.0	
1053.0	
1054.0	
1055.0	
1056.0	
1057.0	
1058.0	
1059.0	
1060.0	
1061.0	
1062.0	
1063.0	
1064.0	
1065.0	
1066.0	
1067.0	
1068.0	
1069.0	
1070.0	
1071.0	
1072.0	
1073.0	
1074.0	
1075.0	
1076.0	
1077.0	
1078.0	
1079.0	
1080.0	
1081.0	
1082.0	
1083.0	
1084.0	
1085.0	
1086.0	
1087.0	
1088.0	
1089.0	
1090.0	
1091.0	
1092.0	
1093.0	
1094.0	
1095.0	
1096.0	
1097.0	
1098.0	
1099.0	
1100.0	
1101.0	
1102.0	
1103.0	
1104.0	
1105.0	
1106.0	
1107.0	
1108.0	
1109.0	
1110.0	
1111.0	
1112.0	
1113.0	
1114.0	
1115.0	
1116.0	
1117.0	
1118.0	
1119.0	
1120.0	
1121.0	
1122.0	
1123.0	
1124.0	
1125.0	
1126.0	
1127.0	
1128.0	
1129.0	
1130.0	
1131.0	
1132.0	
1133.0	
1134.0	
1135.0	
1136.0	
1137.0	
1138.0	
1139.0	
1140.0	
1141.0	
1142.0	
1143.0	
1144.0	
1145.0	
1146.0	
1147.0	
1148.0	
1149.0	
1150.0	
1151.0	
1152.0	
1153.0	
1154.0	
1155.0	
1156.0	
1157.0	
1158.0	
1159.0	
1160.0	
1161.0	
1162.0	
1163.0	
1164.0	
1165.0	
1166.0	
1167.0	
1168.0	
1169.0	
1170.0	
1171.0	
1172.0	
1173.0	
1174.0	
1175.0	
1176.0	
1177.0	
1178.0	
1179.0	
1180.0	
1181.0	
1182.0	
1183.0	
1184.0	
1185.0	
1186.0	
1187.0	
1188.0	
1189.0	
1190.0	
1191.0	
1192.0	
1193.0	
1194.0	
1195.0	
1196.0	
1197.0	
1198.0	
1199.0	
1200.0	
