Wavelength (nm)	"147, CC 2007_2258, 5a"
200.00	
201.00	
202.00	
203.00	
204.00	
205.00	
206.00	
207.00	
208.00	
209.00	
210.00	
211.00	
212.00	
213.00	
214.00	
215.00	
216.00	
217.00	
218.00	
219.00	
220.00	
221.00	
222.00	
223.00	
224.00	
225.00	
226.00	
227.00	
228.00	
229.00	
230.00	
231.00	
232.00	
233.00	
234.00	
235.00	
236.00	
237.00	
238.00	
239.00	
240.00	
241.00	
242.00	
243.00	
244.00	
245.00	
246.00	
247.00	
248.00	
249.00	
250.00	
251.00	
252.00	
253.00	
254.00	
255.00	
256.00	
257.00	
258.00	
259.00	
260.00	
261.00	
262.00	
263.00	
264.00	
265.00	
266.00	
267.00	
268.00	
269.00	
270.00	
271.00	
272.00	
273.00	
274.00	
275.00	
276.00	
277.00	
278.00	
279.00	
280.00	
281.00	
282.00	
283.00	
284.00	
285.00	
286.00	
287.00	
288.00	
289.00	
290.00	
291.00	
292.00	
293.00	
294.00	
295.00	
296.00	
297.00	
298.00	
299.00	
300.00	
301.00	
302.00	
303.00	
304.00	
305.00	
306.00	
307.00	
308.00	
309.00	
310.00	
311.00	
312.00	
313.00	
314.00	
315.00	
316.00	
317.00	
318.00	
319.00	
320.00	
321.00	
322.00	
323.00	
324.00	
325.00	
326.00	
327.00	
328.00	
329.00	
330.00	
331.00	
332.00	
333.00	
334.00	
335.00	
336.00	
337.00	
338.00	
339.00	
340.00	
341.00	
342.00	
343.00	
344.00	
345.00	
346.00	
347.00	
348.00	
349.00	
350.00	0.079699
351.00	0.082370
352.00	0.084229
353.00	0.085055
354.00	0.085880
355.00	0.087213
356.00	0.089277
357.00	0.091341
358.00	0.093193
359.00	0.094699
360.00	0.096206
361.00	0.097713
362.00	0.099086
363.00	0.10001
364.00	0.10094
365.00	0.10186
366.00	0.10256
367.00	0.10225
368.00	0.10195
369.00	0.10164
370.00	0.10128
371.00	0.10067
372.00	0.10005
373.00	0.099429
374.00	0.098718
375.00	0.097170
376.00	0.095623
377.00	0.094075
378.00	0.092459
379.00	0.089774
380.00	0.087088
381.00	0.084403
382.00	0.083016
383.00	0.081954
384.00	0.080892
385.00	0.079830
386.00	0.078717
387.00	0.077089
388.00	0.075461
389.00	0.073834
390.00	0.072206
391.00	0.070730
392.00	0.069417
393.00	0.068103
394.00	0.066790
395.00	0.066175
396.00	0.065904
397.00	0.065633
398.00	0.065362
399.00	0.065001
400.00	0.063240
401.00	0.061478
402.00	0.059717
403.00	0.057955
404.00	0.056069
405.00	0.054150
406.00	0.052232
407.00	0.050616
408.00	0.049257
409.00	0.047897
410.00	0.046538
411.00	0.045179
412.00	0.045097
413.00	0.045097
414.00	0.045097
415.00	0.045097
416.00	0.045097
417.00	0.045282
418.00	0.046163
419.00	0.047043
420.00	0.047924
421.00	0.048805
422.00	0.050563
423.00	0.052366
424.00	0.054170
425.00	0.055974
426.00	0.057378
427.00	0.058675
428.00	0.059972
429.00	0.061270
430.00	0.062567
431.00	0.063160
432.00	0.063731
433.00	0.064302
434.00	0.064873
435.00	0.067144
436.00	0.070596
437.00	0.074049
438.00	0.077832
439.00	0.082285
440.00	0.086738
441.00	0.091191
442.00	0.094117
443.00	0.096980
444.00	0.099843
445.00	0.10278
446.00	0.10807
447.00	0.11337
448.00	0.11866
449.00	0.12395
450.00	0.12963
451.00	0.13562
452.00	0.14162
453.00	0.14761
454.00	0.15419
455.00	0.16378
456.00	0.17338
457.00	0.18298
458.00	0.19292
459.00	0.20539
460.00	0.21786
461.00	0.23033
462.00	0.24290
463.00	0.25569
464.00	0.26847
465.00	0.28126
466.00	0.29404
467.00	0.30781
468.00	0.32181
469.00	0.33581
470.00	0.34981
471.00	0.36475
472.00	0.37982
473.00	0.39488
474.00	0.40995
475.00	0.42690
476.00	0.44455
477.00	0.46219
478.00	0.47984
479.00	0.50214
480.00	0.52652
481.00	0.55090
482.00	0.57555
483.00	0.60250
484.00	0.62945
485.00	0.65640
486.00	0.68538
487.00	0.71560
488.00	0.74582
489.00	0.77608
490.00	0.80815
491.00	0.84022
492.00	0.87228
493.00	0.90308
494.00	0.93373
495.00	0.95870
496.00	0.98274
497.00	0.99550
498.00	1.0000
499.00	0.99425
500.00	0.98019
501.00	0.94909
502.00	0.91798
503.00	0.87130
504.00	0.82072
505.00	0.77014
506.00	0.71733
507.00	0.66278
508.00	0.60822
509.00	0.55857
510.00	0.51401
511.00	0.46945
512.00	0.42390
513.00	0.37762
514.00	0.33135
515.00	0.28856
516.00	0.25225
517.00	0.21594
518.00	0.19436
519.00	0.17407
520.00	0.15377
521.00	0.13523
522.00	0.11967
523.00	0.10411
524.00	0.089423
525.00	0.080604
526.00	0.071785
527.00	0.062967
528.00	0.054533
529.00	0.047252
530.00	0.039970
531.00	0.032689
532.00	0.027510
533.00	0.024121
534.00	0.020733
535.00	0.017344
536.00	0.014539
537.00	0.011862
538.00	0.0091856
539.00	0.0071484
540.00	0.0060703
541.00	0.0049922
542.00	0.0039140
543.00	0.0034844
544.00	0.0031111
545.00	0.0027379
546.00	0.0023880
547.00	0.0021259
548.00	0.0018638
549.00	0.0016018
550.00	0.0013397
551.00	0.0013266
552.00	0.0013266
553.00	0.0013266
554.00	0.0013266
555.00	0.0013266
556.00	0.0013266
557.00	0.0013266
558.00	0.0013266
559.00	0.0013266
560.00	0.0013266
561.00	0.0013266
562.00	0.0013266
563.00	0.0013266
564.00	0.0013266
565.00	0.0013266
566.00	0.0013266
567.00	0.0013266
568.00	0.0013266
569.00	0.0013266
570.00	0.0013266
571.00	0.0013266
572.00	0.0013266
573.00	0.0013266
574.00	0.0013266
575.00	0.0013266
576.00	0.0013266
577.00	0.0013266
578.00	0.0013266
579.00	0.0013266
580.00	0.0013266
581.00	0.0013266
582.00	0.0013266
583.00	0.0013266
584.00	0.0013266
585.00	0.0013266
586.00	0.0013266
587.00	0.0013266
588.00	0.0013266
589.00	0.0013266
590.00	0.0013266
591.00	0.0013266
592.00	0.0013266
593.00	0.0013266
594.00	0.0013266
595.00	0.0013266
596.00	0.0013266
597.00	0.0013266
598.00	0.0013266
599.00	0.0013266
600.00	0.0013266
601.00	
602.00	
603.00	
604.00	
605.00	
606.00	
607.00	
608.00	
609.00	
610.00	
611.00	
612.00	
613.00	
614.00	
615.00	
616.00	
617.00	
618.00	
619.00	
620.00	
621.00	
622.00	
623.00	
624.00	
625.00	
626.00	
627.00	
628.00	
629.00	
630.00	
631.00	
632.00	
633.00	
634.00	
635.00	
636.00	
637.00	
638.00	
639.00	
640.00	
641.00	
642.00	
643.00	
644.00	
645.00	
646.00	
647.00	
648.00	
649.00	
650.00	
651.00	
652.00	
653.00	
654.00	
655.00	
656.00	
657.00	
658.00	
659.00	
660.00	
661.00	
662.00	
663.00	
664.00	
665.00	
666.00	
667.00	
668.00	
669.00	
670.00	
671.00	
672.00	
673.00	
674.00	
675.00	
676.00	
677.00	
678.00	
679.00	
680.00	
681.00	
682.00	
683.00	
684.00	
685.00	
686.00	
687.00	
688.00	
689.00	
690.00	
691.00	
692.00	
693.00	
694.00	
695.00	
696.00	
697.00	
698.00	
699.00	
700.00	
701.00	
702.00	
703.00	
704.00	
705.00	
706.00	
707.00	
708.00	
709.00	
710.00	
711.00	
712.00	
713.00	
714.00	
715.00	
716.00	
717.00	
718.00	
719.00	
720.00	
721.00	
722.00	
723.00	
724.00	
725.00	
726.00	
727.00	
728.00	
729.00	
730.00	
731.00	
732.00	
733.00	
734.00	
735.00	
736.00	
737.00	
738.00	
739.00	
740.00	
741.00	
742.00	
743.00	
744.00	
745.00	
746.00	
747.00	
748.00	
749.00	
750.00	
751.00	
752.00	
753.00	
754.00	
755.00	
756.00	
757.00	
758.00	
759.00	
760.00	
761.00	
762.00	
763.00	
764.00	
765.00	
766.00	
767.00	
768.00	
769.00	
770.00	
771.00	
772.00	
773.00	
774.00	
775.00	
776.00	
777.00	
778.00	
779.00	
780.00	
781.00	
782.00	
783.00	
784.00	
785.00	
786.00	
787.00	
788.00	
789.00	
790.00	
791.00	
792.00	
793.00	
794.00	
795.00	
796.00	
797.00	
798.00	
799.00	
800.00	
801.00	
802.00	
803.00	
804.00	
805.00	
806.00	
807.00	
808.00	
809.00	
810.00	
811.00	
812.00	
813.00	
814.00	
815.00	
816.00	
817.00	
818.00	
819.00	
820.00	
821.00	
822.00	
823.00	
824.00	
825.00	
826.00	
827.00	
828.00	
829.00	
830.00	
831.00	
832.00	
833.00	
834.00	
835.00	
836.00	
837.00	
838.00	
839.00	
840.00	
841.00	
842.00	
843.00	
844.00	
845.00	
846.00	
847.00	
848.00	
849.00	
850.00	
851.00	
852.00	
853.00	
854.00	
855.00	
856.00	
857.00	
858.00	
859.00	
860.00	
861.00	
862.00	
863.00	
864.00	
865.00	
866.00	
867.00	
868.00	
869.00	
870.00	
871.00	
872.00	
873.00	
874.00	
875.00	
876.00	
877.00	
878.00	
879.00	
880.00	
881.00	
882.00	
883.00	
884.00	
885.00	
886.00	
887.00	
888.00	
889.00	
890.00	
891.00	
892.00	
893.00	
894.00	
895.00	
896.00	
897.00	
898.00	
899.00	
900.00	
901.00	
902.00	
903.00	
904.00	
905.00	
906.00	
907.00	
908.00	
909.00	
910.00	
911.00	
912.00	
913.00	
914.00	
915.00	
916.00	
917.00	
918.00	
919.00	
920.00	
921.00	
922.00	
923.00	
924.00	
925.00	
926.00	
927.00	
928.00	
929.00	
930.00	
931.00	
932.00	
933.00	
934.00	
935.00	
936.00	
937.00	
938.00	
939.00	
940.00	
941.00	
942.00	
943.00	
944.00	
945.00	
946.00	
947.00	
948.00	
949.00	
950.00	
951.00	
952.00	
953.00	
954.00	
955.00	
956.00	
957.00	
958.00	
959.00	
960.00	
961.00	
962.00	
963.00	
964.00	
965.00	
966.00	
967.00	
968.00	
969.00	
970.00	
971.00	
972.00	
973.00	
974.00	
975.00	
976.00	
977.00	
978.00	
979.00	
980.00	
981.00	
982.00	
983.00	
984.00	
985.00	
986.00	
987.00	
988.00	
989.00	
990.00	
991.00	
992.00	
993.00	
994.00	
995.00	
996.00	
997.00	
998.00	
999.00	
1000.0	
1001.0	
1002.0	
1003.0	
1004.0	
1005.0	
1006.0	
1007.0	
1008.0	
1009.0	
1010.0	
1011.0	
1012.0	
1013.0	
1014.0	
1015.0	
1016.0	
1017.0	
1018.0	
1019.0	
1020.0	
1021.0	
1022.0	
1023.0	
1024.0	
1025.0	
1026.0	
1027.0	
1028.0	
1029.0	
1030.0	
1031.0	
1032.0	
1033.0	
1034.0	
1035.0	
1036.0	
1037.0	
1038.0	
1039.0	
1040.0	
1041.0	
1042.0	
1043.0	
1044.0	
1045.0	
1046.0	
1047.0	
1048.0	
1049.0	
1050.0	
1051.0	
1052.0	
1053.0	
1054.0	
1055.0	
1056.0	
1057.0	
1058.0	
1059.0	
1060.0	
1061.0	
1062.0	
1063.0	
1064.0	
1065.0	
1066.0	
1067.0	
1068.0	
1069.0	
1070.0	
1071.0	
1072.0	
1073.0	
1074.0	
1075.0	
1076.0	
1077.0	
1078.0	
1079.0	
1080.0	
1081.0	
1082.0	
1083.0	
1084.0	
1085.0	
1086.0	
1087.0	
1088.0	
1089.0	
1090.0	
1091.0	
1092.0	
1093.0	
1094.0	
1095.0	
1096.0	
1097.0	
1098.0	
1099.0	
1100.0	
1101.0	
1102.0	
1103.0	
1104.0	
1105.0	
1106.0	
1107.0	
1108.0	
1109.0	
1110.0	
1111.0	
1112.0	
1113.0	
1114.0	
1115.0	
1116.0	
1117.0	
1118.0	
1119.0	
1120.0	
1121.0	
1122.0	
1123.0	
1124.0	
1125.0	
1126.0	
1127.0	
1128.0	
1129.0	
1130.0	
1131.0	
1132.0	
1133.0	
1134.0	
1135.0	
1136.0	
1137.0	
1138.0	
1139.0	
1140.0	
1141.0	
1142.0	
1143.0	
1144.0	
1145.0	
1146.0	
1147.0	
1148.0	
1149.0	
1150.0	
1151.0	
1152.0	
1153.0	
1154.0	
1155.0	
1156.0	
1157.0	
1158.0	
1159.0	
1160.0	
1161.0	
1162.0	
1163.0	
1164.0	
1165.0	
1166.0	
1167.0	
1168.0	
1169.0	
1170.0	
1171.0	
1172.0	
1173.0	
1174.0	
1175.0	
1176.0	
1177.0	
1178.0	
1179.0	
1180.0	
1181.0	
1182.0	
1183.0	
1184.0	
1185.0	
1186.0	
1187.0	
1188.0	
1189.0	
1190.0	
1191.0	
1192.0	
1193.0	
1194.0	
1195.0	
1196.0	
1197.0	
1198.0	
1199.0	
1200.0	
