Wavelength (nm)	MesoP IX (in 1 N aqHCl).abs
300.00	0.017168
301.00	0.017660
302.00	0.018015
303.00	0.018461
304.00	0.018690
305.00	0.019158
306.00	0.019495
307.00	0.020033
308.00	0.020429
309.00	0.020845
310.00	0.021434
311.00	0.021890
312.00	0.022477
313.00	0.023052
314.00	0.023538
315.00	0.024109
316.00	0.024650
317.00	0.025343
318.00	0.025930
319.00	0.026446
320.00	0.026939
321.00	0.027485
322.00	0.028055
323.00	0.028609
324.00	0.029183
325.00	0.029799
326.00	0.030336
327.00	0.030949
328.00	0.031527
329.00	0.032114
330.00	0.032698
331.00	0.033411
332.00	0.034111
333.00	0.034783
334.00	0.035448
335.00	0.036042
336.00	0.036828
337.00	0.037688
338.00	0.038466
339.00	0.039236
340.00	0.040115
341.00	0.041028
342.00	0.042047
343.00	0.043200
344.00	0.044219
345.00	0.045436
346.00	0.046661
347.00	0.047960
348.00	0.049354
349.00	0.050731
350.00	0.052298
351.00	0.053578
352.00	0.054923
353.00	0.056370
354.00	0.057827
355.00	0.059287
356.00	0.060942
357.00	0.062643
358.00	0.064250
359.00	0.066048
360.00	0.068052
361.00	0.070147
362.00	0.072374
363.00	0.074658
364.00	0.076760
365.00	0.079090
366.00	0.081543
367.00	0.084062
368.00	0.086709
369.00	0.089720
370.00	0.092858
371.00	0.096791
372.00	0.10138
373.00	0.10714
374.00	0.11395
375.00	0.12179
376.00	0.13067
377.00	0.14021
378.00	0.15006
379.00	0.15986
380.00	0.16862
381.00	0.17723
382.00	0.18550
383.00	0.19394
384.00	0.20309
385.00	0.21408
386.00	0.22621
387.00	0.23950
388.00	0.25362
389.00	0.26867
390.00	0.28768
391.00	0.31268
392.00	0.34762
393.00	0.39596
394.00	0.45959
395.00	0.54289
396.00	0.64454
397.00	0.76109
398.00	0.87337
399.00	0.95910
400.00	1.0000
401.00	0.98822
402.00	0.92308
403.00	0.82134
404.00	0.70122
405.00	0.57654
406.00	0.46463
407.00	0.36414
408.00	0.27880
409.00	0.21107
410.00	0.15994
411.00	0.12014
412.00	0.090276
413.00	0.068003
414.00	0.052308
415.00	0.040444
416.00	0.031766
417.00	0.025358
418.00	0.020598
419.00	0.016953
420.00	0.014140
421.00	0.011965
422.00	0.010113
423.00	0.0087815
424.00	0.0077901
425.00	0.0068001
426.00	0.0061448
427.00	0.0057178
428.00	0.0049751
429.00	0.0048459
430.00	0.0044126
431.00	0.0040619
432.00	0.0037534
433.00	0.0038049
434.00	0.0032667
435.00	0.0032050
436.00	0.0031156
437.00	0.0028800
438.00	0.0029087
439.00	0.0027980
440.00	0.0026838
441.00	0.0026673
442.00	0.0024458
443.00	0.0025002
444.00	0.0024084
445.00	0.0022549
446.00	0.0022199
447.00	0.0022413
448.00	0.0022753
449.00	0.0023103
450.00	0.0021160
451.00	0.0020499
452.00	0.0021373
453.00	0.0020377
454.00	0.0022855
455.00	0.0021898
456.00	0.0021388
457.00	0.0022529
458.00	0.0021980
459.00	0.0023418
460.00	0.0023428
461.00	0.0023137
462.00	0.0023554
463.00	0.0024346
464.00	0.0024536
465.00	0.0025638
466.00	0.0025250
467.00	0.0026435
468.00	0.0026056
469.00	0.0025968
470.00	0.0027086
471.00	0.0026993
472.00	0.0027392
473.00	0.0027528
474.00	0.0029320
475.00	0.0027722
476.00	0.0027431
477.00	0.0028786
478.00	0.0028344
479.00	0.0029447
480.00	0.0028596
481.00	0.0029306
482.00	0.0028898
483.00	0.0029238
484.00	0.0028499
485.00	0.0038302
486.00	0.0024876
487.00	0.0023404
488.00	0.0030879
489.00	0.0031613
490.00	0.0031870
491.00	0.0031598
492.00	0.0033979
493.00	0.0035382
494.00	0.0035640
495.00	0.0036893
496.00	0.0039064
497.00	0.0040745
498.00	0.0043859
499.00	0.0043650
500.00	0.0045447
501.00	0.0048843
502.00	0.0050630
503.00	0.0053001
504.00	0.0055473
505.00	0.0056066
506.00	0.0056484
507.00	0.0057883
508.00	0.0060122
509.00	0.0061021
510.00	0.0062667
511.00	0.0062080
512.00	0.0063459
513.00	0.0064810
514.00	0.0064319
515.00	0.0066145
516.00	0.0067977
517.00	0.0067467
518.00	0.0069886
519.00	0.0071391
520.00	0.0073004
521.00	0.0075273
522.00	0.0074243
523.00	0.0075992
524.00	0.0075846
525.00	0.0076643
526.00	0.0077978
527.00	0.0079528
528.00	0.0081908
529.00	0.0084002
530.00	0.0088199
531.00	0.0092551
532.00	0.010033
533.00	0.011046
534.00	0.012318
535.00	0.013904
536.00	0.015703
537.00	0.018027
538.00	0.020629
539.00	0.023445
540.00	0.026497
541.00	0.029558
542.00	0.032454
543.00	0.034723
544.00	0.036479
545.00	0.037650
546.00	0.038388
547.00	0.038667
548.00	0.038360
549.00	0.037794
550.00	0.036830
551.00	0.035198
552.00	0.033066
553.00	0.030491
554.00	0.027691
555.00	0.024943
556.00	0.022364
557.00	0.020050
558.00	0.018189
559.00	0.016673
560.00	0.015607
561.00	0.014643
562.00	0.014118
563.00	0.013814
564.00	0.013534
565.00	0.013376
566.00	0.013210
567.00	0.013121
568.00	0.013055
569.00	0.012878
570.00	0.012425
571.00	0.012001
572.00	0.011558
573.00	0.011175
574.00	0.010528
575.00	0.010031
576.00	0.0097656
577.00	0.0094649
578.00	0.0088631
579.00	0.0088340
580.00	0.0088097
581.00	0.0091594
582.00	0.0087781
583.00	0.0094164
584.00	0.010529
585.00	0.011191
586.00	0.012038
587.00	0.013134
588.00	0.013788
589.00	0.014232
590.00	0.014450
591.00	0.014208
592.00	0.013589
593.00	0.012447
594.00	0.011157
595.00	0.0098914
596.00	0.0085289
597.00	0.0073879
598.00	0.0064523
599.00	0.0054099
600.00	0.0047317
601.00	0.0041080
602.00	0.0036859
603.00	0.0032356
604.00	0.0028208
605.00	0.0026989
606.00	0.0024827
607.00	0.0022490
608.00	0.0021946
609.00	0.0020193
610.00	0.0019663
611.00	0.0019489
612.00	0.0018167
613.00	0.0018289
614.00	0.0017016
615.00	0.0016477
616.00	0.0016516
617.00	0.0016205
618.00	0.0015403
619.00	0.0015481
620.00	0.0015743
621.00	0.0014699
622.00	0.0014650
623.00	0.0014160
624.00	0.0013344
625.00	0.0013145
626.00	0.0012100
627.00	0.0012766
628.00	0.0012673
629.00	0.0012158
630.00	0.0012217
631.00	0.0011799
632.00	0.0011843
633.00	0.0011284
634.00	0.0011483
635.00	0.0011435
636.00	0.0010774
637.00	0.0010701
638.00	0.0011522
639.00	0.0011435
640.00	0.00099101
641.00	0.0010215
642.00	0.0010575
643.00	0.0010390
644.00	0.0010123
645.00	0.00092801
646.00	0.00082201
647.00	0.00076401
648.00	0.00084901
649.00	0.00090601
650.00	0.00091201
651.00	0.00094501
652.00	0.00093601
653.00	0.00078102
654.00	0.00080002
655.00	0.00087011
656.00	0.00091087
657.00	0.00078126
658.00	0.00080801
659.00	0.00078601
660.00	0.00080801
661.00	0.00079601
662.00	0.00081301
663.00	0.00084001
664.00	0.00080901
665.00	0.00083401
666.00	0.00071101
667.00	0.00077101
668.00	0.00074401
669.00	0.00079501
670.00	0.00071201
671.00	0.00072901
672.00	0.00070801
673.00	0.00074801
674.00	0.00079901
675.00	0.00075301
676.00	0.00074301
677.00	0.00080901
678.00	0.00075401
679.00	0.00077401
680.00	0.00074601
681.00	0.00079401
682.00	0.00076901
683.00	0.00078801
684.00	0.00075701
685.00	0.00077701
686.00	0.00074401
687.00	0.00076701
688.00	0.00074301
689.00	0.00074901
690.00	0.00075201
691.00	0.00081101
692.00	0.00072201
693.00	0.00071001
694.00	0.00066501
695.00	0.00069001
696.00	0.00072201
697.00	0.00070901
698.00	0.00062601
699.00	0.00067101
700.00	0.00062701
