Wavelength (nm)	Pd(II) UroP I (in DMSO).abs
300.00	0.10393
301.00	0.10495
302.00	0.10702
303.00	0.10892
304.00	0.11055
305.00	0.11257
306.00	0.11472
307.00	0.11675
308.00	0.11882
309.00	0.12146
310.00	0.12368
311.00	0.12564
312.00	0.12742
313.00	0.12936
314.00	0.13077
315.00	0.13198
316.00	0.13309
317.00	0.13392
318.00	0.13483
319.00	0.13567
320.00	0.13615
321.00	0.13666
322.00	0.13708
323.00	0.13725
324.00	0.13697
325.00	0.13659
326.00	0.13623
327.00	0.13524
328.00	0.13398
329.00	0.13269
330.00	0.13112
331.00	0.12964
332.00	0.12794
333.00	0.12650
334.00	0.12481
335.00	0.12333
336.00	0.12170
337.00	0.12029
338.00	0.11918
339.00	0.11813
340.00	0.11768
341.00	0.11739
342.00	0.11724
343.00	0.11756
344.00	0.11818
345.00	0.11926
346.00	0.12060
347.00	0.12193
348.00	0.12363
349.00	0.12537
350.00	0.12724
351.00	0.12952
352.00	0.13161
353.00	0.13390
354.00	0.13652
355.00	0.13919
356.00	0.14225
357.00	0.14569
358.00	0.14944
359.00	0.15358
360.00	0.15844
361.00	0.16377
362.00	0.16971
363.00	0.17679
364.00	0.18410
365.00	0.19208
366.00	0.20128
367.00	0.21042
368.00	0.22030
369.00	0.23127
370.00	0.24224
371.00	0.25439
372.00	0.26590
373.00	0.27765
374.00	0.28969
375.00	0.30227
376.00	0.31496
377.00	0.32884
378.00	0.34419
379.00	0.36150
380.00	0.38042
381.00	0.40294
382.00	0.42822
383.00	0.45585
384.00	0.48709
385.00	0.52259
386.00	0.56117
387.00	0.60420
388.00	0.65086
389.00	0.69988
390.00	0.75403
391.00	0.80792
392.00	0.86137
393.00	0.90864
394.00	0.94624
395.00	0.97544
396.00	0.99303
397.00	1.0000
398.00	0.99671
399.00	0.98201
400.00	0.95751
401.00	0.92241
402.00	0.87683
403.00	0.82162
404.00	0.75926
405.00	0.69174
406.00	0.62657
407.00	0.56204
408.00	0.50071
409.00	0.44566
410.00	0.39843
411.00	0.35656
412.00	0.32017
413.00	0.28868
414.00	0.26221
415.00	0.23669
416.00	0.21285
417.00	0.18989
418.00	0.16815
419.00	0.14848
420.00	0.13086
421.00	0.11562
422.00	0.10333
423.00	0.093031
424.00	0.084354
425.00	0.076809
426.00	0.070734
427.00	0.064679
428.00	0.060027
429.00	0.056039
430.00	0.052176
431.00	0.049499
432.00	0.047770
433.00	0.045302
434.00	0.043114
435.00	0.041977
436.00	0.040458
437.00	0.038809
438.00	0.037819
439.00	0.037100
440.00	0.036425
441.00	0.035770
442.00	0.035290
443.00	0.034903
444.00	0.034606
445.00	0.034206
446.00	0.034157
447.00	0.034019
448.00	0.033527
449.00	0.033625
450.00	0.033523
451.00	0.033288
452.00	0.033265
453.00	0.033109
454.00	0.032874
455.00	0.032526
456.00	0.032454
457.00	0.032448
458.00	0.032122
459.00	0.032044
460.00	0.032320
461.00	0.032638
462.00	0.033062
463.00	0.033453
464.00	0.033627
465.00	0.034119
466.00	0.033914
467.00	0.034244
468.00	0.034161
469.00	0.034307
470.00	0.034483
471.00	0.034461
472.00	0.034398
473.00	0.034061
474.00	0.034039
475.00	0.033990
476.00	0.034094
477.00	0.034086
478.00	0.034097
479.00	0.033737
480.00	0.033963
481.00	0.033918
482.00	0.034286
483.00	0.034380
484.00	0.034391
485.00	0.034208
486.00	0.033996
487.00	0.035531
488.00	0.037497
489.00	0.036565
490.00	0.036827
491.00	0.037696
492.00	0.038887
493.00	0.039953
494.00	0.041356
495.00	0.043206
496.00	0.045073
497.00	0.047866
498.00	0.051153
499.00	0.054593
500.00	0.058226
501.00	0.062166
502.00	0.065997
503.00	0.070579
504.00	0.074673
505.00	0.078180
506.00	0.081472
507.00	0.083688
508.00	0.085810
509.00	0.087861
510.00	0.089394
511.00	0.090791
512.00	0.091188
513.00	0.090514
514.00	0.088188
515.00	0.084396
516.00	0.078659
517.00	0.072307
518.00	0.065696
519.00	0.059395
520.00	0.054095
521.00	0.049976
522.00	0.046700
523.00	0.044301
524.00	0.042779
525.00	0.041937
526.00	0.041470
527.00	0.041318
528.00	0.041722
529.00	0.042078
530.00	0.043347
531.00	0.045156
532.00	0.047308
533.00	0.050100
534.00	0.053362
535.00	0.057355
536.00	0.062300
537.00	0.068920
538.00	0.078221
539.00	0.090764
540.00	0.10725
541.00	0.12748
542.00	0.14914
543.00	0.17013
544.00	0.18797
545.00	0.19945
546.00	0.20218
547.00	0.19529
548.00	0.17915
549.00	0.15660
550.00	0.13055
551.00	0.10506
552.00	0.082973
553.00	0.064688
554.00	0.051227
555.00	0.040804
556.00	0.033350
557.00	0.028044
558.00	0.024273
559.00	0.021473
560.00	0.019407
561.00	0.018089
562.00	0.017002
563.00	0.016367
564.00	0.016036
565.00	0.015824
566.00	0.015822
567.00	0.015721
568.00	0.015522
569.00	0.015129
570.00	0.014737
571.00	0.014409
572.00	0.014271
573.00	0.013941
574.00	0.013349
575.00	0.013225
576.00	0.012967
577.00	0.012372
578.00	0.011999
579.00	0.012036
580.00	0.011311
581.00	0.010834
582.00	0.010278
583.00	0.010472
584.00	0.0099524
585.00	0.0089354
586.00	0.0089036
587.00	0.0086766
588.00	0.0082674
589.00	0.0082977
590.00	0.0081016
591.00	0.0078634
592.00	0.0077349
593.00	0.0074396
594.00	0.0075026
595.00	0.0075251
596.00	0.0074000
597.00	0.0072765
598.00	0.0071453
599.00	0.0068457
600.00	0.0068734
601.00	0.0067646
602.00	0.0067163
603.00	0.0065030
604.00	0.0064496
605.00	0.0064927
606.00	0.0062657
607.00	0.0061768
608.00	0.0061363
609.00	0.0061622
610.00	0.0058756
611.00	0.0059437
612.00	0.0058997
613.00	0.0058220
614.00	0.0057194
615.00	0.0057098
616.00	0.0056408
617.00	0.0056166
618.00	0.0056399
619.00	0.0060249
620.00	0.0059265
621.00	0.0058798
622.00	0.0060318
623.00	0.0059583
624.00	0.0060525
625.00	0.0057279
626.00	0.0052721
627.00	0.0048829
628.00	0.0045342
629.00	0.0045047
630.00	0.0041096
631.00	0.0040404
632.00	0.0038221
633.00	0.0036451
634.00	0.0036805
635.00	0.0035708
636.00	0.0033603
637.00	0.0033542
638.00	0.0034872
639.00	0.0033232
640.00	0.0032609
641.00	0.0028880
642.00	0.0030623
643.00	0.0028708
644.00	0.0033007
645.00	0.0033610
646.00	0.0032263
647.00	0.0031746
648.00	0.0032187
649.00	0.0031306
650.00	0.0027068
651.00	0.0027034
652.00	0.0025410
653.00	0.0024487
654.00	0.0023236
655.00	0.0023529
656.00	0.0021723
657.00	0.0021723
658.00	0.0021482
659.00	0.0022295
660.00	0.0019999
661.00	0.0019473
662.00	0.0018151
663.00	0.0019109
664.00	0.0017806
665.00	0.0017210
666.00	0.0016693
667.00	0.0016572
668.00	0.0015864
669.00	0.0014552
670.00	0.0013801
671.00	0.0012765
672.00	0.0012696
673.00	0.0011729
674.00	0.0012057
675.00	0.0011350
676.00	0.0010547
677.00	0.0010236
678.00	0.0010529
679.00	0.00098994
680.00	0.00092951
681.00	0.00071889
682.00	0.00075948
683.00	0.00069301
684.00	0.00081903
685.00	0.00059373
686.00	0.00070423
687.00	0.00067574
688.00	0.00051347
689.00	0.00053246
690.00	0.00052900
691.00	0.00035636
692.00	0.00023984
693.00	0.00024242
694.00	0.00028558
695.00	0.00015870
696.00	0.00022861
697.00	0.00010518
698.00	1.4545e-05
699.00	6.9739e-05
700.00	5.3083e-05
