Wavelength (nm)	"182, MM Mat 2009_120_331, 2"
200.00	
201.00	
202.00	
203.00	
204.00	
205.00	
206.00	
207.00	
208.00	
209.00	
210.00	
211.00	
212.00	
213.00	
214.00	
215.00	
216.00	
217.00	
218.00	
219.00	
220.00	
221.00	
222.00	
223.00	
224.00	
225.00	
226.00	
227.00	
228.00	
229.00	
230.00	
231.00	
232.00	
233.00	
234.00	
235.00	
236.00	
237.00	
238.00	
239.00	
240.00	
241.00	
242.00	
243.00	
244.00	
245.00	
246.00	
247.00	
248.00	
249.00	
250.00	
251.00	
252.00	
253.00	
254.00	
255.00	
256.00	
257.00	
258.00	
259.00	
260.00	
261.00	
262.00	
263.00	
264.00	
265.00	
266.00	
267.00	
268.00	
269.00	
270.00	
271.00	
272.00	
273.00	
274.00	
275.00	
276.00	
277.00	
278.00	
279.00	
280.00	
281.00	
282.00	
283.00	
284.00	
285.00	
286.00	
287.00	
288.00	
289.00	
290.00	
291.00	
292.00	
293.00	
294.00	
295.00	
296.00	
297.00	
298.00	
299.00	
300.00	0.39963
301.00	0.40250
302.00	0.40537
303.00	0.40824
304.00	0.41338
305.00	0.41935
306.00	0.42532
307.00	0.43541
308.00	0.44658
309.00	0.45715
310.00	0.46791
311.00	0.48007
312.00	0.49224
313.00	0.50571
314.00	0.51941
315.00	0.53313
316.00	0.54699
317.00	0.56084
318.00	0.57516
319.00	0.59064
320.00	0.60612
321.00	0.62177
322.00	0.63779
323.00	0.65380
324.00	0.66982
325.00	0.68526
326.00	0.69948
327.00	0.71370
328.00	0.72792
329.00	0.74213
330.00	0.75538
331.00	0.76860
332.00	0.78182
333.00	0.79504
334.00	0.80742
335.00	0.81977
336.00	0.83211
337.00	0.84397
338.00	0.85556
339.00	0.86664
340.00	0.87592
341.00	0.88520
342.00	0.89150
343.00	0.89697
344.00	0.89845
345.00	0.89928
346.00	0.89749
347.00	0.89500
348.00	0.88993
349.00	0.88352
350.00	0.87559
351.00	0.86752
352.00	0.85451
353.00	0.84203
354.00	0.83018
355.00	0.81833
356.00	0.80407
357.00	0.78939
358.00	0.77471
359.00	0.76118
360.00	0.74863
361.00	0.73608
362.00	0.72259
363.00	0.70616
364.00	0.68972
365.00	0.67709
366.00	0.66681
367.00	0.65653
368.00	0.64625
369.00	0.63605
370.00	0.62610
371.00	0.61615
372.00	0.60620
373.00	0.59624
374.00	0.58629
375.00	0.57634
376.00	0.56585
377.00	0.55536
378.00	0.54486
379.00	0.53437
380.00	0.52388
381.00	0.51339
382.00	0.50295
383.00	0.49271
384.00	0.48247
385.00	0.47222
386.00	0.46198
387.00	0.45174
388.00	0.44150
389.00	0.43126
390.00	0.42101
391.00	0.41077
392.00	0.39894
393.00	0.38710
394.00	0.37525
395.00	0.36340
396.00	0.35156
397.00	0.33971
398.00	0.32787
399.00	0.31602
400.00	0.30417
401.00	0.29247
402.00	0.28081
403.00	0.26916
404.00	0.25750
405.00	0.24584
406.00	0.23444
407.00	0.22349
408.00	0.21254
409.00	0.20159
410.00	0.19324
411.00	0.18525
412.00	0.17725
413.00	0.16983
414.00	0.16448
415.00	0.15913
416.00	0.15378
417.00	0.14843
418.00	0.14308
419.00	0.13791
420.00	0.13392
421.00	0.12993
422.00	0.12594
423.00	0.12196
424.00	0.11797
425.00	0.11434
426.00	0.11085
427.00	0.10736
428.00	0.10387
429.00	0.10038
430.00	0.097885
431.00	0.096343
432.00	0.094802
433.00	0.093260
434.00	0.091719
435.00	0.090177
436.00	0.088783
437.00	0.087594
438.00	0.086404
439.00	0.085214
440.00	0.084024
441.00	0.082834
442.00	0.081444
443.00	0.080018
444.00	0.078592
445.00	0.077165
446.00	0.075739
447.00	0.074313
448.00	0.072887
449.00	0.071718
450.00	0.070584
451.00	0.069450
452.00	0.068317
453.00	0.067189
454.00	0.066709
455.00	0.066229
456.00	0.065749
457.00	0.065269
458.00	0.064788
459.00	0.064494
460.00	0.064729
461.00	0.064964
462.00	0.065199
463.00	0.065435
464.00	0.065908
465.00	0.066568
466.00	0.067229
467.00	0.067889
468.00	0.068701
469.00	0.069759
470.00	0.070817
471.00	0.071875
472.00	0.072932
473.00	0.074015
474.00	0.075228
475.00	0.076440
476.00	0.077653
477.00	0.078866
478.00	0.080078
479.00	0.081196
480.00	0.082014
481.00	0.082832
482.00	0.083650
483.00	0.084468
484.00	0.085286
485.00	0.085834
486.00	0.086329
487.00	0.086825
488.00	0.087321
489.00	0.087817
490.00	0.088199
491.00	0.088275
492.00	0.088350
493.00	0.088426
494.00	0.088501
495.00	0.088577
496.00	0.088652
497.00	0.088728
498.00	0.089085
499.00	0.089454
500.00	0.089822
501.00	0.090191
502.00	0.090559
503.00	0.090928
504.00	0.091297
505.00	0.091356
506.00	0.091068
507.00	0.090779
508.00	0.090491
509.00	0.089952
510.00	0.089271
511.00	0.088591
512.00	0.087911
513.00	0.087230
514.00	0.086565
515.00	0.085905
516.00	0.085244
517.00	0.084584
518.00	0.084249
519.00	0.084139
520.00	0.084030
521.00	0.083921
522.00	0.083811
523.00	0.084331
524.00	0.085387
525.00	0.086443
526.00	0.087499
527.00	0.089581
528.00	0.091803
529.00	0.094024
530.00	0.096486
531.00	0.099308
532.00	0.10213
533.00	0.10496
534.00	0.10783
535.00	0.11070
536.00	0.11356
537.00	0.11621
538.00	0.11872
539.00	0.12124
540.00	0.12339
541.00	0.12473
542.00	0.12608
543.00	0.12742
544.00	0.12876
545.00	0.13011
546.00	0.13129
547.00	0.13235
548.00	0.13341
549.00	0.13446
550.00	0.13552
551.00	0.13658
552.00	0.13809
553.00	0.14071
554.00	0.14334
555.00	0.14596
556.00	0.14859
557.00	0.15172
558.00	0.15649
559.00	0.16125
560.00	0.16655
561.00	0.17621
562.00	0.18586
563.00	0.19552
564.00	0.20646
565.00	0.21895
566.00	0.23145
567.00	0.24693
568.00	0.26551
569.00	0.28408
570.00	0.30298
571.00	0.32322
572.00	0.34346
573.00	0.36370
574.00	0.38384
575.00	0.40351
576.00	0.42317
577.00	0.44062
578.00	0.45474
579.00	0.46886
580.00	0.47860
581.00	0.48709
582.00	0.49163
583.00	0.49447
584.00	0.49158
585.00	0.48708
586.00	0.48052
587.00	0.47396
588.00	0.46542
589.00	0.45631
590.00	0.44721
591.00	0.43721
592.00	0.42720
593.00	0.41719
594.00	0.40834
595.00	0.40003
596.00	0.39173
597.00	0.38342
598.00	0.37564
599.00	0.37066
600.00	0.36568
601.00	0.36292
602.00	0.36101
603.00	0.35945
604.00	0.36064
605.00	0.36182
606.00	0.36555
607.00	0.37469
608.00	0.38965
609.00	0.40504
610.00	0.42325
611.00	0.44286
612.00	0.46300
613.00	0.49338
614.00	0.52376
615.00	0.56106
616.00	0.59900
617.00	0.64360
618.00	0.68819
619.00	0.73386
620.00	0.78115
621.00	0.82702
622.00	0.87158
623.00	0.91155
624.00	0.94694
625.00	0.98137
626.00	0.99759
627.00	1.0000
628.00	0.99800
629.00	0.99559
630.00	0.98202
631.00	0.96019
632.00	0.93598
633.00	0.90939
634.00	0.88111
635.00	0.84775
636.00	0.81439
637.00	0.77994
638.00	0.73974
639.00	0.69954
640.00	0.65933
641.00	0.61787
642.00	0.57582
643.00	0.53376
644.00	0.49171
645.00	0.44839
646.00	0.39792
647.00	0.34744
648.00	0.30341
649.00	0.27084
650.00	0.23991
651.00	0.21215
652.00	0.18573
653.00	0.15930
654.00	0.13761
655.00	0.12196
656.00	0.10630
657.00	0.093266
658.00	0.080766
659.00	0.068267
660.00	0.061272
661.00	0.055099
662.00	0.048926
663.00	0.043278
664.00	0.038041
665.00	0.032805
666.00	0.027757
667.00	0.024883
668.00	0.022008
669.00	0.019133
670.00	0.016831
671.00	0.015285
672.00	0.013740
673.00	0.012195
674.00	0.010649
675.00	0.0091042
676.00	0.0075589
677.00	0.0066080
678.00	0.0059915
679.00	0.0053750
680.00	0.0047585
681.00	0.0041420
682.00	0.0035255
683.00	0.0030533
684.00	0.0028266
685.00	0.0026000
686.00	0.0023734
687.00	0.0021468
688.00	0.0019201
689.00	0.0016935
690.00	0.0014805
691.00	0.0014805
692.00	0.0014805
693.00	0.0014805
694.00	0.0014805
695.00	0.0014805
696.00	0.0014805
697.00	0.0014805
698.00	0.0014805
699.00	0.0014805
700.00	0.0014805
701.00	0.0014805
702.00	0.0014805
703.00	0.0014805
704.00	0.0014805
705.00	0.0014805
706.00	0.0014805
707.00	0.0014805
708.00	0.0014805
709.00	0.0014805
710.00	0.0014805
711.00	0.0014805
712.00	0.0014805
713.00	0.0014805
714.00	0.0014805
715.00	0.0014805
716.00	0.0014805
717.00	0.0014805
718.00	0.0014805
719.00	0.0014805
720.00	0.0014805
721.00	0.0014805
722.00	0.0014805
723.00	0.0014805
724.00	0.0014805
725.00	0.0014805
726.00	0.0014805
727.00	0.0014805
728.00	0.0014805
729.00	0.0014805
730.00	0.0014805
731.00	0.0014805
732.00	0.0014805
733.00	0.0014805
734.00	0.0014805
735.00	0.0014805
736.00	0.0014805
737.00	0.0014805
738.00	0.0014805
739.00	0.0014805
740.00	0.0014805
741.00	0.0014805
742.00	0.0014805
743.00	0.0014805
744.00	0.0014805
745.00	0.0014805
746.00	0.0014805
747.00	0.0014805
748.00	0.0014805
749.00	0.0014805
750.00	0.0014805
751.00	0.0014805
752.00	0.0014805
753.00	0.0014805
754.00	0.0014805
755.00	0.0014805
756.00	0.0014805
757.00	0.0014805
758.00	0.0014805
759.00	0.0014805
760.00	0.0014805
761.00	0.0014805
762.00	0.0014805
763.00	0.0014805
764.00	0.0014805
765.00	0.0014805
766.00	0.0014805
767.00	0.0014805
768.00	0.0014805
769.00	0.0014805
770.00	0.0014805
771.00	0.0014805
772.00	0.0014805
773.00	0.0014805
774.00	0.0014805
775.00	0.0014805
776.00	0.0014805
777.00	0.0014805
778.00	0.0014805
779.00	0.0014805
780.00	0.0014805
781.00	0.0014805
782.00	0.0014805
783.00	0.0014805
784.00	0.0014805
785.00	0.0014805
786.00	0.0014805
787.00	0.0014805
788.00	0.0014805
789.00	0.0014805
790.00	0.0014805
791.00	0.0014805
792.00	0.0014805
793.00	0.0014805
794.00	0.0014805
795.00	0.0014805
796.00	0.0014805
797.00	0.0014805
798.00	0.0014805
799.00	0.0014805
800.00	0.0014805
801.00	
802.00	
803.00	
804.00	
805.00	
806.00	
807.00	
808.00	
809.00	
810.00	
811.00	
812.00	
813.00	
814.00	
815.00	
816.00	
817.00	
818.00	
819.00	
820.00	
821.00	
822.00	
823.00	
824.00	
825.00	
826.00	
827.00	
828.00	
829.00	
830.00	
831.00	
832.00	
833.00	
834.00	
835.00	
836.00	
837.00	
838.00	
839.00	
840.00	
841.00	
842.00	
843.00	
844.00	
845.00	
846.00	
847.00	
848.00	
849.00	
850.00	
851.00	
852.00	
853.00	
854.00	
855.00	
856.00	
857.00	
858.00	
859.00	
860.00	
861.00	
862.00	
863.00	
864.00	
865.00	
866.00	
867.00	
868.00	
869.00	
870.00	
871.00	
872.00	
873.00	
874.00	
875.00	
876.00	
877.00	
878.00	
879.00	
880.00	
881.00	
882.00	
883.00	
884.00	
885.00	
886.00	
887.00	
888.00	
889.00	
890.00	
891.00	
892.00	
893.00	
894.00	
895.00	
896.00	
897.00	
898.00	
899.00	
900.00	
901.00	
902.00	
903.00	
904.00	
905.00	
906.00	
907.00	
908.00	
909.00	
910.00	
911.00	
912.00	
913.00	
914.00	
915.00	
916.00	
917.00	
918.00	
919.00	
920.00	
921.00	
922.00	
923.00	
924.00	
925.00	
926.00	
927.00	
928.00	
929.00	
930.00	
931.00	
932.00	
933.00	
934.00	
935.00	
936.00	
937.00	
938.00	
939.00	
940.00	
941.00	
942.00	
943.00	
944.00	
945.00	
946.00	
947.00	
948.00	
949.00	
950.00	
951.00	
952.00	
953.00	
954.00	
955.00	
956.00	
957.00	
958.00	
959.00	
960.00	
961.00	
962.00	
963.00	
964.00	
965.00	
966.00	
967.00	
968.00	
969.00	
970.00	
971.00	
972.00	
973.00	
974.00	
975.00	
976.00	
977.00	
978.00	
979.00	
980.00	
981.00	
982.00	
983.00	
984.00	
985.00	
986.00	
987.00	
988.00	
989.00	
990.00	
991.00	
992.00	
993.00	
994.00	
995.00	
996.00	
997.00	
998.00	
999.00	
1000.0	
1001.0	
1002.0	
1003.0	
1004.0	
1005.0	
1006.0	
1007.0	
1008.0	
1009.0	
1010.0	
1011.0	
1012.0	
1013.0	
1014.0	
1015.0	
1016.0	
1017.0	
1018.0	
1019.0	
1020.0	
1021.0	
1022.0	
1023.0	
1024.0	
1025.0	
1026.0	
1027.0	
1028.0	
1029.0	
1030.0	
1031.0	
1032.0	
1033.0	
1034.0	
1035.0	
1036.0	
1037.0	
1038.0	
1039.0	
1040.0	
1041.0	
1042.0	
1043.0	
1044.0	
1045.0	
1046.0	
1047.0	
1048.0	
1049.0	
1050.0	
1051.0	
1052.0	
1053.0	
1054.0	
1055.0	
1056.0	
1057.0	
1058.0	
1059.0	
1060.0	
1061.0	
1062.0	
1063.0	
1064.0	
1065.0	
1066.0	
1067.0	
1068.0	
1069.0	
1070.0	
1071.0	
1072.0	
1073.0	
1074.0	
1075.0	
1076.0	
1077.0	
1078.0	
1079.0	
1080.0	
1081.0	
1082.0	
1083.0	
1084.0	
1085.0	
1086.0	
1087.0	
1088.0	
1089.0	
1090.0	
1091.0	
1092.0	
1093.0	
1094.0	
1095.0	
1096.0	
1097.0	
1098.0	
1099.0	
1100.0	
1101.0	
1102.0	
1103.0	
1104.0	
1105.0	
1106.0	
1107.0	
1108.0	
1109.0	
1110.0	
1111.0	
1112.0	
1113.0	
1114.0	
1115.0	
1116.0	
1117.0	
1118.0	
1119.0	
1120.0	
1121.0	
1122.0	
1123.0	
1124.0	
1125.0	
1126.0	
1127.0	
1128.0	
1129.0	
1130.0	
1131.0	
1132.0	
1133.0	
1134.0	
1135.0	
1136.0	
1137.0	
1138.0	
1139.0	
1140.0	
1141.0	
1142.0	
1143.0	
1144.0	
1145.0	
1146.0	
1147.0	
1148.0	
1149.0	
1150.0	
1151.0	
1152.0	
1153.0	
1154.0	
1155.0	
1156.0	
1157.0	
1158.0	
1159.0	
1160.0	
1161.0	
1162.0	
1163.0	
1164.0	
1165.0	
1166.0	
1167.0	
1168.0	
1169.0	
1170.0	
1171.0	
1172.0	
1173.0	
1174.0	
1175.0	
1176.0	
1177.0	
1178.0	
1179.0	
1180.0	
1181.0	
1182.0	
1183.0	
1184.0	
1185.0	
1186.0	
1187.0	
1188.0	
1189.0	
1190.0	
1191.0	
1192.0	
1193.0	
1194.0	
1195.0	
1196.0	
1197.0	
1198.0	
1199.0	
1200.0	
