Wavelength (nm)	J Nat Prod  2020_873, YCC 3 abs [Z]
250.00	1.0813
251.00	1.0623
252.00	1.0427
253.00	1.0037
254.00	0.97003
255.00	0.94567
256.00	0.92333
257.00	0.90677
258.00	0.89021
259.00	0.87983
260.00	0.86946
261.00	0.86169
262.00	0.85483
263.00	0.85090
264.00	0.84869
265.00	0.84648
266.00	0.84741
267.00	0.84861
268.00	0.84982
269.00	0.85086
270.00	0.85179
271.00	0.85272
272.00	0.85365
273.00	0.85437
274.00	0.85506
275.00	0.85575
276.00	0.85592
277.00	0.85435
278.00	0.85278
279.00	0.85063
280.00	0.84750
281.00	0.84437
282.00	0.84020
283.00	0.83549
284.00	0.83077
285.00	0.82646
286.00	0.82226
287.00	0.81805
288.00	0.81514
289.00	0.81363
290.00	0.81212
291.00	0.81114
292.00	0.81273
293.00	0.81431
294.00	0.81590
295.00	0.82124
296.00	0.82810
297.00	0.83497
298.00	0.84184
299.00	0.85358
300.00	0.86806
301.00	0.88253
302.00	0.89439
303.00	0.90551
304.00	0.91663
305.00	0.92776
306.00	0.93944
307.00	0.95111
308.00	0.96279
309.00	0.97472
310.00	0.98741
311.00	0.99550
312.00	0.99775
313.00	1.0000
314.00	0.99790
315.00	0.99581
316.00	0.98929
317.00	0.98007
318.00	0.96637
319.00	0.94837
320.00	0.93036
321.00	0.91000
322.00	0.88524
323.00	0.86048
324.00	0.83573
325.00	0.81097
326.00	0.78385
327.00	0.74881
328.00	0.71377
329.00	0.67872
330.00	0.64368
331.00	0.60650
332.00	0.56323
333.00	0.51997
334.00	0.47670
335.00	0.44487
336.00	0.41589
337.00	0.38692
338.00	0.35794
339.00	0.32897
340.00	0.30442
341.00	0.28380
342.00	0.26317
343.00	0.24255
344.00	0.22193
345.00	0.20630
346.00	0.19149
347.00	0.17825
348.00	0.16870
349.00	0.15914
350.00	0.15304
351.00	0.14816
352.00	0.14327
353.00	0.13938
354.00	0.13818
355.00	0.13699
356.00	0.13580
357.00	0.13540
358.00	0.13576
359.00	0.13613
360.00	0.13649
361.00	0.13733
362.00	0.13875
363.00	0.14017
364.00	0.14159
365.00	0.14302
366.00	0.14444
367.00	0.14595
368.00	0.14816
369.00	0.15037
370.00	0.15257
371.00	0.15485
372.00	0.15856
373.00	0.16226
374.00	0.16596
375.00	0.16972
376.00	0.17386
377.00	0.17800
378.00	0.18214
379.00	0.18627
380.00	0.19041
381.00	0.19455
382.00	0.19956
383.00	0.20541
384.00	0.21126
385.00	0.21711
386.00	0.22296
387.00	0.22881
388.00	0.23466
389.00	0.24051
390.00	0.24636
391.00	0.25221
392.00	0.25783
393.00	0.26342
394.00	0.26902
395.00	0.27461
396.00	0.28020
397.00	0.28579
398.00	0.29138
399.00	0.29697
400.00	0.30256
401.00	0.30815
402.00	0.31374
403.00	0.31933
404.00	0.32491
405.00	0.33049
406.00	0.33607
407.00	0.34165
408.00	0.34723
409.00	0.35281
410.00	0.35815
411.00	0.36257
412.00	0.36698
413.00	0.37139
414.00	0.37581
415.00	0.38022
416.00	0.38417
417.00	0.38715
418.00	0.39013
419.00	0.39311
420.00	0.39609
421.00	0.39740
422.00	0.39829
423.00	0.39918
424.00	0.39860
425.00	0.39801
426.00	0.39743
427.00	0.39685
428.00	0.39427
429.00	0.39096
430.00	0.38764
431.00	0.38237
432.00	0.37681
433.00	0.37126
434.00	0.36570
435.00	0.35868
436.00	0.35088
437.00	0.34308
438.00	0.33528
439.00	0.32749
440.00	0.31807
441.00	0.30862
442.00	0.29917
443.00	0.28973
444.00	0.28028
445.00	0.27083
446.00	0.26126
447.00	0.25167
448.00	0.24207
449.00	0.23247
450.00	0.22288
451.00	0.21314
452.00	0.20175
453.00	0.19036
454.00	0.17896
455.00	0.16757
456.00	0.15618
457.00	0.14562
458.00	0.13821
459.00	0.13079
460.00	0.12337
461.00	0.11596
462.00	0.10854
463.00	0.10112
464.00	0.094177
465.00	0.088436
466.00	0.082695
467.00	0.076954
468.00	0.071213
469.00	0.065472
470.00	0.059731
471.00	0.054702
472.00	0.050385
473.00	0.046067
474.00	0.041750
475.00	0.037432
476.00	0.034108
477.00	0.031666
478.00	0.029223
479.00	0.026780
480.00	0.024338
481.00	0.021895
482.00	0.020125
483.00	0.018512
484.00	0.016900
485.00	0.015287
486.00	0.013675
487.00	0.012224
488.00	0.011288
489.00	0.010352
490.00	0.0094158
491.00	0.0084797
492.00	0.0075435
493.00	0.0066074
494.00	0.0058551
495.00	0.0055121
496.00	0.0051691
497.00	0.0048262
498.00	0.0044832
499.00	0.0041402
500.00	0.0037973
501.00	0.0034543
502.00	0.0031113
503.00	0.0029460
504.00	0.0029092
505.00	0.0028724
506.00	0.0028356
507.00	0.0027988
508.00	0.0027620
509.00	0.0027252
510.00	0.0026884
511.00	0.0026516
512.00	0.0026148
513.00	0.0025780
514.00	0.0025412
515.00	0.0025044
516.00	0.0024669
517.00	0.0023971
518.00	0.0023273
519.00	0.0022575
520.00	0.0021877
521.00	0.0021180
522.00	0.0020482
523.00	0.0019784
524.00	0.0019086
525.00	0.0018388
526.00	0.0017690
527.00	0.0016992
528.00	0.0016294
529.00	0.0015596
530.00	0.0014898
531.00	0.0014703
532.00	0.0014703
533.00	0.0014703
534.00	0.0014703
535.00	0.0014703
536.00	0.0014703
537.00	0.0014703
538.00	0.0014703
539.00	0.0014703
540.00	0.0014703
541.00	0.0014703
542.00	0.0014703
543.00	0.0014703
544.00	0.0014703
545.00	0.0014703
546.00	0.0014703
547.00	0.0014703
548.00	0.0014703
549.00	0.0014703
550.00	0.0014703
