Wavelength (nm)	E20 abs e
220.00	21010
220.25	20854
220.50	20463
220.75	19906
221.00	19572
221.25	18774
221.50	18885
221.75	17985
222.00	17940
222.25	17530
222.50	17264
222.75	17482
223.00	16692
223.25	16676
223.50	16418
223.75	16444
224.00	16004
224.25	15835
224.50	15888
224.75	15812
225.00	15514
225.25	15348
225.50	15344
225.75	15549
226.00	15306
226.25	15554
226.50	15419
226.75	15279
227.00	15461
227.25	15745
227.50	15350
227.75	15447
228.00	15813
228.25	15988
228.50	15991
228.75	16152
229.00	16335
229.25	16344
229.50	16277
229.75	16622
230.00	17037
230.25	17337
230.50	17797
230.75	17587
231.00	17613
231.25	17918
231.50	18235
231.75	18804
232.00	19054
232.25	19198
232.50	19484
232.75	19715
233.00	19898
233.25	20102
233.50	20433
233.75	20956
234.00	21082
234.25	21417
234.50	21733
234.75	21869
235.00	22191
235.25	22533
235.50	23242
235.75	23090
236.00	22903
236.25	23481
236.50	23796
236.75	24288
237.00	23824
237.25	24378
237.50	24781
237.75	24716
238.00	25170
238.25	25146
238.50	25309
238.75	25097
239.00	25569
239.25	25812
239.50	25753
239.75	25814
240.00	26355
240.25	26449
240.50	26508
240.75	26634
241.00	26861
241.25	26827
241.50	26914
241.75	27038
242.00	27016
242.25	26910
242.50	27502
242.75	27359
243.00	27565
243.25	27369
243.50	26959
243.75	26877
244.00	27389
244.25	26992
244.50	26791
244.75	26963
245.00	26497
245.25	27009
245.50	26566
245.75	26367
246.00	26478
246.25	25723
246.50	25712
246.75	25649
247.00	25630
247.25	25598
247.50	25311
247.75	25062
248.00	25359
248.25	25125
248.50	24528
248.75	24317
249.00	24343
249.25	24411
249.50	23906
249.75	24183
250.00	24328
250.25	23545
250.50	23719
250.75	23772
251.00	23589
251.25	23580
251.50	23476
251.75	23531
252.00	23198
252.25	23355
252.50	23488
252.75	23215
253.00	23592
253.25	23294
253.50	23221
253.75	23265
254.00	22851
254.25	22952
254.50	22769
254.75	22900
255.00	22781
255.25	22237
255.50	22009
255.75	21607
256.00	21113
256.25	20448
256.50	19664
256.75	19257
257.00	19393
257.25	18563
257.50	17917
257.75	17294
258.00	16661
258.25	15852
258.50	15747
258.75	14989
259.00	14482
259.25	14031
259.50	13604
259.75	13432
260.00	13108
260.25	12624
260.50	12519
260.75	12419
261.00	11982
261.25	11885
261.50	11982
261.75	12358
262.00	12259
262.25	12376
262.50	12269
262.75	12793
263.00	12602
263.25	12752
263.50	13103
263.75	13385
264.00	13604
264.25	14252
264.50	14325
264.75	14901
265.00	15439
265.25	15627
265.50	16262
265.75	16338
266.00	17195
266.25	17331
266.50	18169
266.75	18987
267.00	19112
267.25	20021
267.50	20819
267.75	21135
268.00	21658
268.25	22476
268.50	23115
268.75	24103
269.00	24915
269.25	25520
269.50	26711
269.75	27221
270.00	27971
270.25	28912
270.50	29811
270.75	30698
271.00	31851
271.25	32757
271.50	33597
271.75	35126
272.00	36070
272.25	36969
272.50	38025
272.75	39184
273.00	40336
273.25	41202
273.50	42772
273.75	43838
274.00	45594
274.25	46448
274.50	48071
274.75	49712
275.00	51473
275.25	52985
275.50	54850
275.75	55758
276.00	56674
276.25	58688
276.50	59753
276.75	60666
277.00	62400
277.25	63962
277.50	64656
277.75	65773
278.00	66255
278.25	68420
278.50	68363
278.75	68989
279.00	71429
279.25	72007
279.50	72172
279.75	73324
280.00	74131
280.25	75274
280.50	75464
280.75	75987
281.00	77432
281.25	78015
281.50	78468
281.75	79770
282.00	80308
282.25	80531
282.50	80964
282.75	80997
283.00	83042
283.25	83838
283.50	82834
283.75	84057
284.00	84126
284.25	84340
284.50	85678
284.75	85388
285.00	84981
285.25	84697
285.50	85864
285.75	85828
286.00	87001
286.25	85631
286.50	86177
286.75	85558
287.00	85853
287.25	84474
287.50	84132
287.75	83382
288.00	81671
288.25	82443
288.50	81216
288.75	79868
289.00	79828
289.25	78447
289.50	77611
289.75	76065
290.00	74847
290.25	73633
290.50	72290
290.75	71134
291.00	69599
291.25	68323
291.50	66279
291.75	65133
292.00	63961
292.25	61856
292.50	60999
292.75	59371
293.00	58295
293.25	56285
293.50	55161
293.75	53182
294.00	52106
294.25	50428
294.50	49571
294.75	48655
295.00	47682
295.25	47180
295.50	45548
295.75	44473
296.00	43012
296.25	41997
296.50	40135
296.75	39184
297.00	38198
297.25	36750
297.50	35975
297.75	35050
298.00	33827
298.25	32945
298.50	31696
298.75	30906
299.00	30146
299.25	29068
299.50	28507
299.75	27737
300.00	26993
300.25	26609
300.50	25821
300.75	24959
301.00	24594
301.25	24261
301.50	22841
301.75	22876
302.00	22362
302.25	21377
302.50	20848
302.75	21091
303.00	20547
303.25	19777
303.50	19526
303.75	18791
304.00	18795
304.25	18370
304.50	18303
304.75	17682
305.00	17352
305.25	17207
305.50	16807
305.75	16763
306.00	15912
306.25	15863
306.50	15732
306.75	15606
307.00	15700
307.25	15076
307.50	14940
307.75	14494
308.00	14574
308.25	14261
308.50	14308
308.75	13808
309.00	13870
309.25	13600
309.50	13364
309.75	13903
310.00	13851
310.25	13777
310.50	13837
310.75	13270
311.00	13246
311.25	13353
311.50	13698
311.75	13206
312.00	12950
312.25	13260
312.50	13033
312.75	12494
313.00	12305
313.25	12782
313.50	12152
313.75	12283
314.00	12043
314.25	12376
314.50	11952
314.75	11706
315.00	11812
315.25	11722
315.50	11593
315.75	12161
316.00	11701
316.25	11461
316.50	11667
316.75	11076
317.00	11923
317.25	11305
317.50	11132
317.75	11103
318.00	11922
318.25	11394
318.50	11219
318.75	10543
319.00	11405
319.25	11209
319.50	10508
319.75	10858
320.00	11097
320.25	11067
320.50	10859
320.75	10304
321.00	10954
321.25	10705
321.50	10842
321.75	10551
322.00	10629
322.25	10627
322.50	10671
322.75	10334
323.00	10199
323.25	10475
323.50	10378
323.75	10298
324.00	10332
324.25	10270
324.50	9736.9
324.75	10057
325.00	10123
325.25	9807.4
325.50	10236
325.75	10168
326.00	9588.2
326.25	9597.9
326.50	9384.4
326.75	9644.4
327.00	9515.7
327.25	9271.5
327.50	9454.9
327.75	9410.0
328.00	8944.1
328.25	9123.9
328.50	8913.5
328.75	9029.4
329.00	8715.8
329.25	8997.3
329.50	8959.5
329.75	9149.5
330.00	8696.4
330.25	8237.2
330.50	8609.1
330.75	8493.1
331.00	8580.5
331.25	8442.5
331.50	8363.9
331.75	8211.7
332.00	8420.6
332.25	7970.6
332.50	7985.4
332.75	7973.6
333.00	8124.3
333.25	7995.6
333.50	7530.8
333.75	7959.3
334.00	7728.5
334.25	7644.7
334.50	7757.1
334.75	7955.8
335.00	7601.8
335.25	7903.2
335.50	7643.2
335.75	7400.0
336.00	7533.3
336.25	7440.4
336.50	7571.1
336.75	7321.4
337.00	7331.1
337.25	7551.2
337.50	7316.3
337.75	7172.7
338.00	7146.2
338.25	7147.2
338.50	7138.5
338.75	7199.3
339.00	7466.9
339.25	7213.1
339.50	6792.2
339.75	6955.1
340.00	7180.9
340.25	6861.7
340.50	6887.7
340.75	6978.1
341.00	6837.7
341.25	6522.5
341.50	6610.4
341.75	7045.0
342.00	6839.2
342.25	6692.1
342.50	6818.8
342.75	6713.0
343.00	6753.9
343.25	6726.8
343.50	6497.0
343.75	6458.6
344.00	6694.1
344.25	6533.7
344.50	6522.0
344.75	6554.2
345.00	6828.5
345.25	6508.7
345.50	6306.9
345.75	6250.8
346.00	6530.2
346.25	6343.2
346.50	6359.0
346.75	6465.3
347.00	6459.7
347.25	6392.8
347.50	6307.5
347.75	6429.0
348.00	6455.1
348.25	6285.5
348.50	6292.1
348.75	6286.0
349.00	6244.6
349.25	6267.1
349.50	6352.4
349.75	6289.1
350.00	6085.3
350.25	6219.6
350.50	6233.9
350.75	6396.3
351.00	6109.8
351.25	6069.4
351.50	6519.9
351.75	6051.0
352.00	5980.0
352.25	5983.1
352.50	6212.4
352.75	6194.6
353.00	5874.3
353.25	5987.2
353.50	6236.5
353.75	5973.4
354.00	6082.2
354.25	5951.9
354.50	6080.2
354.75	5951.9
355.00	5969.3
355.25	6000.5
355.50	5568.3
355.75	5899.8
356.00	5695.0
356.25	5728.2
356.50	5559.7
356.75	5600.5
357.00	5645.0
357.25	5635.8
357.50	5530.5
357.75	5393.7
358.00	5519.3
358.25	5388.5
358.50	5262.9
358.75	5275.2
359.00	5037.6
359.25	5206.2
359.50	5225.6
359.75	5273.6
360.00	4956.4
360.25	4760.8
360.50	5075.4
360.75	4877.8
361.00	4823.6
361.25	4783.3
361.50	4673.4
361.75	4932.4
362.00	4821.1
362.25	4960.0
362.50	4678.6
362.75	4579.0
363.00	4612.2
363.25	4916.6
363.50	4671.4
363.75	4708.7
364.00	4880.3
364.25	4661.2
364.50	4585.6
364.75	4655.1
365.00	4599.4
365.25	4435.4
365.50	4608.1
365.75	4634.1
366.00	4686.7
366.25	4422.1
366.50	4659.7
366.75	4621.3
367.00	4482.9
367.25	4529.9
367.50	4624.4
367.75	4536.6
368.00	4449.7
368.25	4444.6
368.50	4374.1
368.75	4395.1
369.00	4445.1
369.25	4416.5
369.50	4391.0
369.75	4445.6
370.00	4354.2
370.25	4373.6
370.50	4359.3
370.75	4157.0
371.00	4146.8
371.25	4457.4
371.50	4343.5
371.75	4449.7
372.00	4190.2
372.25	4415.5
372.50	4449.7
372.75	4558.5
373.00	4347.6
373.25	4286.8
373.50	4521.7
373.75	4357.3
374.00	4309.3
374.25	4275.0
374.50	4255.6
374.75	4360.3
375.00	4177.0
375.25	4388.9
375.50	4206.6
375.75	4357.8
376.00	4587.1
376.25	4368.0
376.50	4246.9
376.75	4168.3
377.00	4232.6
377.25	4501.3
377.50	4304.1
377.75	4353.7
378.00	4439.0
378.25	4296.5
378.50	4348.1
378.75	4319.5
379.00	4463.0
379.25	4469.1
379.50	4591.2
379.75	4373.1
380.00	4451.8
380.25	4445.1
380.50	4356.8
380.75	4450.2
381.00	4562.1
381.25	4624.4
381.50	4577.4
381.75	4541.7
382.00	4605.5
382.25	4654.5
382.50	4624.4
382.75	4591.7
383.00	4779.2
383.25	4798.1
383.50	4713.3
383.75	4804.7
384.00	4910.5
384.25	4762.8
384.50	4876.7
384.75	4891.0
385.00	4849.7
385.25	5001.9
385.50	5080.0
385.75	5084.1
386.00	4984.5
386.25	5004.9
386.50	4980.9
386.75	5208.2
387.00	5135.7
387.25	5286.4
387.50	5247.6
387.75	5150.5
388.00	5128.0
388.25	5234.3
388.50	5219.0
388.75	5371.7
389.00	5433.5
389.25	5216.9
389.50	5336.4
389.75	5254.2
390.00	5547.4
390.25	5373.2
390.50	5330.8
390.75	5508.6
391.00	5402.3
391.25	5601.5
391.50	5407.4
391.75	5494.8
392.00	5622.0
392.25	5560.2
392.50	5696.6
392.75	5613.8
393.00	5676.1
393.25	5703.2
393.50	5692.5
393.75	5711.4
394.00	5791.6
394.25	5919.3
394.50	5812.5
394.75	5708.3
395.00	5798.7
395.25	5726.2
395.50	6045.9
395.75	5802.3
396.00	6003.5
396.25	5903.4
396.50	6070.4
396.75	5989.7
397.00	5968.8
397.25	6207.9
397.50	6129.2
397.75	6208.4
398.00	6103.6
398.25	6127.1
398.50	6194.6
398.75	6197.1
399.00	6343.2
399.25	6289.1
399.50	6403.5
399.75	6296.2
400.00	6304.9
400.25	6488.8
400.50	6353.4
400.75	6460.7
401.00	6385.6
401.25	6618.5
401.50	6657.9
401.75	6574.6
402.00	6829.0
402.25	6580.2
402.50	6734.5
402.75	6838.7
403.00	6883.1
403.25	6809.6
403.50	6897.9
403.75	7091.5
404.00	7041.5
404.25	7169.7
404.50	7089.0
404.75	7081.3
405.00	7215.1
405.25	7214.6
405.50	7446.0
405.75	7446.0
406.00	7437.3
406.25	7529.8
406.50	7655.9
406.75	7668.7
407.00	7915.9
407.25	7788.2
407.50	7893.4
407.75	7882.7
408.00	8025.7
408.25	7966.5
408.50	8180.0
408.75	8264.3
409.00	8168.3
409.25	8364.9
409.50	8350.6
409.75	8522.7
410.00	8631.0
410.25	8592.2
410.50	8670.9
410.75	8797.0
411.00	8980.9
411.25	8965.6
411.50	9052.4
411.75	9180.1
412.00	9153.6
412.25	9336.9
412.50	9352.3
412.75	9369.1
413.00	9547.9
413.25	9506.0
413.50	9771.6
413.75	9805.3
414.00	10011
414.25	9903.4
414.50	10054
414.75	9855.4
415.00	10018
415.25	10021
415.50	10209
415.75	10328
416.00	10290
416.25	10418
416.50	10354
416.75	10467
417.00	10676
417.25	10644
417.50	10737
417.75	10747
418.00	10807
418.25	11023
418.50	11072
418.75	11022
419.00	11206
419.25	11182
419.50	11274
419.75	11273
420.00	11196
420.25	11341
420.50	11431
420.75	11437
421.00	11494
421.25	11535
421.50	11560
421.75	11747
422.00	11688
422.25	11564
422.50	11747
422.75	11855
423.00	11845
423.25	11706
423.50	11880
423.75	12059
424.00	12088
424.25	11946
424.50	12066
424.75	12174
425.00	12107
425.25	12086
425.50	12042
425.75	12069
426.00	12137
426.25	12412
426.50	12335
426.75	12260
427.00	12155
427.25	12357
427.50	12222
427.75	12410
428.00	12393
428.25	12327
428.50	12465
428.75	12422
429.00	12469
429.25	12415
429.50	12346
429.75	12653
430.00	12562
430.25	12691
430.50	12479
430.75	12506
431.00	12617
431.25	12665
431.50	12604
431.75	12735
432.00	12871
432.25	12618
432.50	12770
432.75	12722
433.00	12631
433.25	12895
433.50	12734
433.75	12756
434.00	12853
434.25	12898
434.50	12846
434.75	12805
435.00	12893
435.25	13037
435.50	12994
435.75	13053
436.00	13015
436.25	13034
436.50	13067
436.75	13073
437.00	13148
437.25	13110
437.50	13198
437.75	13141
438.00	13293
438.25	13284
438.50	13265
438.75	13342
439.00	13346
439.25	13253
439.50	13364
439.75	13333
440.00	13290
440.25	13312
440.50	13500
440.75	13473
441.00	13394
441.25	13587
441.50	13679
441.75	13578
442.00	13590
442.25	13692
442.50	13592
442.75	13741
443.00	13689
443.25	13818
443.50	13896
443.75	13707
444.00	13914
444.25	14002
444.50	13979
444.75	14073
445.00	14046
445.25	14009
445.50	14011
445.75	14047
446.00	14034
446.25	14169
446.50	14203
446.75	14242
447.00	14208
447.25	14297
447.50	14320
447.75	14406
448.00	14473
448.25	14489
448.50	14433
448.75	14506
449.00	14362
449.25	14398
449.50	14501
449.75	14450
450.00	14449
450.25	14587
450.50	14533
450.75	14590
451.00	14494
451.25	14589
451.50	14488
451.75	14627
452.00	14793
452.25	14578
452.50	14727
452.75	14625
453.00	14567
453.25	14618
453.50	14606
453.75	14647
454.00	14523
454.25	14565
454.50	14610
454.75	14465
455.00	14541
455.25	14633
455.50	14486
455.75	14509
456.00	14446
456.25	14396
456.50	14397
456.75	14371
457.00	14282
457.25	14344
457.50	14352
457.75	14211
458.00	14180
458.25	14187
458.50	14159
458.75	14105
459.00	14048
459.25	13940
459.50	13895
459.75	13830
460.00	13854
460.25	13697
460.50	13763
460.75	13621
461.00	13692
461.25	13449
461.50	13479
461.75	13363
462.00	13302
462.25	13331
462.50	13252
462.75	13090
463.00	13011
463.25	12939
463.50	12807
463.75	12662
464.00	12730
464.25	12603
464.50	12517
464.75	12350
465.00	12255
465.25	12242
465.50	12223
465.75	12026
466.00	11935
466.25	11938
466.50	11853
466.75	11638
467.00	11569
467.25	11396
467.50	11303
467.75	11317
468.00	11252
468.25	11067
468.50	10970
468.75	10856
469.00	10797
469.25	10571
469.50	10428
469.75	10454
470.00	10276
470.25	10200
470.50	10040
470.75	9997.9
471.00	9837.0
471.25	9725.1
471.50	9564.2
471.75	9414.1
472.00	9467.7
472.25	9391.1
472.50	9182.7
472.75	9093.3
473.00	8963.0
473.25	8865.0
473.50	8649.4
473.75	8539.1
474.00	8526.3
474.25	8445.6
474.50	8305.7
474.75	8292.4
475.00	8153.9
475.25	7993.1
475.50	7750.9
475.75	7616.1
476.00	7529.3
476.25	7412.8
476.50	7351.0
476.75	7216.7
477.00	7280.0
477.25	7049.6
477.50	6963.3
477.75	6935.2
478.00	6850.4
478.25	6648.1
478.50	6597.1
478.75	6555.7
479.00	6488.3
479.25	6475.0
479.50	6225.7
479.75	6117.4
480.00	6074.0
480.25	5964.2
480.50	5933.6
480.75	5973.9
481.00	5764.5
481.25	5734.4
481.50	5696.6
481.75	5505.5
482.00	5507.1
482.25	5411.5
482.50	5367.6
482.75	5191.4
483.00	5160.2
483.25	5133.7
483.50	5015.2
483.75	4997.3
484.00	4890.0
484.25	4862.9
484.50	4813.9
484.75	4728.1
485.00	4650.5
485.25	4610.1
485.50	4538.6
485.75	4435.4
486.00	4308.7
486.25	4328.7
486.50	4244.9
486.75	4332.8
487.00	4208.6
487.25	4069.2
487.50	4074.3
487.75	3978.3
488.00	3948.6
488.25	3921.1
488.50	3822.0
488.75	3826.6
489.00	3672.3
489.25	3805.6
489.50	3626.8
489.75	3559.9
490.00	3553.8
490.25	3409.2
490.50	3479.2
490.75	3465.4
491.00	3464.9
491.25	3453.7
491.50	3221.3
491.75	3277.0
492.00	3233.0
492.25	3087.5
492.50	3152.8
492.75	3104.8
493.00	3062.4
493.25	3079.3
493.50	3130.9
493.75	3002.2
494.00	2923.5
494.25	2879.1
494.50	2905.1
494.75	2917.9
495.00	2786.1
495.25	2785.6
495.50	2843.3
495.75	2668.6
496.00	2799.9
496.25	2645.6
496.50	2554.2
496.75	2680.9
497.00	2610.9
497.25	2666.6
497.50	2531.7
497.75	2537.3
498.00	2544.5
498.25	2363.7
498.50	2495.4
498.75	2430.1
499.00	2459.7
499.25	2356.0
499.50	2298.8
499.75	2301.4
500.00	2340.2
500.25	2324.8
500.50	2323.8
500.75	2221.2
501.00	2336.6
501.25	2185.9
501.50	2124.1
501.75	2099.6
502.00	2096.0
502.25	2060.3
502.50	2048.5
502.75	2114.4
503.00	2143.0
503.25	2061.3
503.50	2055.7
503.75	1986.2
504.00	1864.1
504.25	1927.5
504.50	1825.3
504.75	1826.3
505.00	1842.2
505.25	1946.4
505.50	1787.5
505.75	1810.5
506.00	1758.4
506.25	1881.5
506.50	1860.5
506.75	1803.8
507.00	1748.7
507.25	1715.5
507.50	1859.5
507.75	1658.3
508.00	1778.3
508.25	1700.2
508.50	1654.7
508.75	1753.3
509.00	1624.0
509.25	1672.1
509.50	1600.0
509.75	1563.8
510.00	1569.9
510.25	1538.2
510.50	1506.1
510.75	1578.1
511.00	1563.8
511.25	1526.0
511.50	1532.6
511.75	1626.1
512.00	1451.9
512.25	1584.7
512.50	1511.2
512.75	1476.4
513.00	1462.6
513.25	1392.7
513.50	1465.2
513.75	1466.7
514.00	1331.9
514.25	1361.5
514.50	1361.5
514.75	1480.5
515.00	1441.2
515.25	1310.4
515.50	1377.3
515.75	1435.6
516.00	1383.0
516.25	1270.6
516.50	1316.6
516.75	1253.7
517.00	1228.7
517.25	1363.5
517.50	1377.8
517.75	1307.4
518.00	1352.3
518.25	1258.8
518.50	1330.3
518.75	1166.4
519.00	1336.0
519.25	1262.9
519.50	1236.4
519.75	1227.7
520.00	1146.0
520.25	1182.2
520.50	1227.2
520.75	1249.6
521.00	1244.0
521.25	1268.0
521.50	1158.7
521.75	1093.9
522.00	1150.0
522.25	1196.5
522.50	1113.8
522.75	1133.2
523.00	1105.6
523.25	1078.5
523.50	1112.7
523.75	1127.1
524.00	1058.6
524.25	971.77
524.50	1072.4
524.75	1112.7
525.00	1005.0
525.25	1146.5
525.50	1053.0
525.75	1111.7
526.00	964.62
526.25	937.55
526.50	859.91
526.75	1034.1
527.00	909.46
527.25	1086.7
527.50	931.42
527.75	1031.5
528.00	908.95
528.25	974.33
528.50	988.12
528.75	987.10
529.00	935.00
529.25	949.30
529.50	904.35
529.75	812.92
530.00	938.06
530.25	955.94
530.50	936.53
530.75	954.41
531.00	833.86
531.25	827.73
531.50	908.95
531.75	860.42
532.00	831.31
532.25	880.85
532.50	871.15
532.75	779.72
533.00	806.79
533.25	771.54
533.50	842.03
533.75	838.97
534.00	907.92
534.25	763.88
534.50	818.54
534.75	935.00
535.00	732.21
535.25	795.55
535.50	802.19
535.75	786.87
536.00	755.71
536.25	756.22
536.50	832.33
536.75	758.77
537.00	784.31
537.25	754.69
537.50	660.70
537.75	729.66
538.00	806.79
538.25	737.32
538.50	713.31
538.75	715.36
539.00	725.06
539.25	800.15
539.50	670.41
539.75	751.11
540.00	733.75
540.25	708.21
540.50	629.03
540.75	741.41
541.00	637.21
541.25	695.44
541.50	652.02
541.75	710.25
542.00	704.63
542.25	573.36
542.50	601.45
542.75	606.05
543.00	550.88
543.25	606.05
543.50	596.85
543.75	560.59
544.00	600.43
544.25	585.62
544.50	647.42
544.75	581.02
545.00	634.65
545.25	639.76
545.50	659.17
545.75	505.93
546.00	482.95
546.25	480.91
546.50	594.81
546.75	522.79
547.00	566.72
547.25	558.03
547.50	424.72
547.75	572.85
548.00	644.87
548.25	621.37
548.50	459.96
548.75	593.79
549.00	444.13
549.25	527.90
549.50	432.89
549.75	420.12
550.00	500.83
550.25	424.72
550.50	403.27
550.75	348.61
551.00	474.78
551.25	419.10
551.50	516.15
551.75	430.85
552.00	481.42
552.25	453.32
552.50	439.02
552.75	481.42
553.00	414.50
553.25	478.86
553.50	391.52
553.75	384.37
554.00	335.84
554.25	428.30
554.50	476.82
554.75	466.60
555.00	417.06
555.25	336.86
555.50	318.48
555.75	401.22
556.00	340.95
556.25	365.47
556.50	354.74
556.75	360.36
557.00	405.31
557.25	347.08
557.50	453.83
557.75	231.64
558.00	326.65
558.25	300.60
558.50	481.42
558.75	293.45
559.00	334.82
559.25	355.25
559.50	231.13
559.75	380.28
560.00	354.74
560.25	347.59
560.50	299.07
560.75	278.63
561.00	331.25
561.25	220.92
561.50	321.03
561.75	337.37
562.00	325.12
562.25	313.37
562.50	275.06
562.75	247.48
563.00	310.81
563.25	186.69
563.50	236.75
563.75	294.98
564.00	308.77
564.25	252.58
564.50	218.87
564.75	241.35
565.00	199.46
565.25	300.09
565.50	270.46
565.75	226.53
566.00	300.60
566.25	275.06
566.50	263.31
566.75	257.18
567.00	164.22
567.25	261.27
567.50	234.20
567.75	322.56
568.00	183.12
568.25	148.89
568.50	245.94
568.75	140.21
569.00	238.79
569.25	171.88
569.50	202.02
569.75	179.54
570.00	196.40
570.25	172.90
570.50	222.45
570.75	159.11
571.00	76.873
571.25	286.81
571.50	174.43
571.75	188.74
572.00	191.29
572.25	202.02
572.50	128.46
572.75	115.69
573.00	166.26
573.25	199.46
573.50	135.61
573.75	169.33
574.00	140.72
574.25	183.12
574.50	147.36
574.75	155.02
575.00	146.85
575.25	143.28
575.50	112.63
575.75	232.15
576.00	237.77
576.25	115.69
576.50	241.86
576.75	195.38
577.00	239.81
577.25	249.01
577.50	142.77
577.75	144.30
578.00	154.00
578.25	103.43
578.50	140.72
578.75	154.00
579.00	130.00
579.25	116.20
579.50	97.816
579.75	125.40
580.00	11.493
580.25	161.66
580.50	219.89
580.75	109.56
581.00	113.65
581.25	61.039
581.50	145.83
581.75	68.190
582.00	135.10
582.25	141.23
582.50	114.67
582.75	102.41
583.00	103.43
583.25	121.82
583.50	76.363
583.75	184.65
584.00	89.132
584.25	143.28
584.50	4.3417
584.75	234.20
585.00	124.38
585.25	126.93
585.50	109.56
585.75	62.571
586.00	164.22
586.25	71.255
586.50	135.61
586.75	19.155
587.00	79.427
587.25	31.413
587.50	130.00
587.75	72.787
588.00	126.93
588.25	21.198
588.50	133.57
588.75	104.46
589.00	51.845
589.25	173.92
589.50	67.169
589.75	85.046
590.00	140.72
590.25	53.377
590.50	67.169
590.75	111.10
591.00	159.11
591.25	54.910
591.50	90.154
591.75	98.327
592.00	161.66
592.25	111.61
592.50	59.507
592.75	16.090
593.00	35.500
593.25	4.8525
593.50	132.55
593.75	104.46
594.00	98.327
594.25	75.852
594.50	113.65
594.75	33.457
595.00	169.84
595.25	70.233
595.50	71.766
595.75	75.341
596.00	99.859
596.25	31.413
596.50	15.502
596.75	45.205
597.00	87.089
597.25	57.464
597.50	81.471
597.75	63.082
598.00	52.356
598.25	116.71
598.50	84.025
598.75	80.449
599.00	19.155
599.25	143.79
599.50	92.708
599.75	41.118
600.00	117.23
