Wavelength (nm)	CHL062_Chl a2, 90Ace (Clementson, 2019).abs
333.40	0.26485
334.20	0.26633
335.10	0.26785
335.90	0.27167
336.80	0.26876
337.70	0.26760
338.50	0.26517
339.40	0.26180
340.20	0.26193
341.10	0.26212
341.90	0.26212
342.80	0.26493
343.60	0.25587
344.50	0.25806
345.30	0.25704
346.20	0.25305
347.00	0.25146
347.90	0.25280
348.70	0.25074
349.60	0.24988
350.50	0.24924
351.30	0.25020
352.20	0.24999
353.00	0.25494
353.90	0.25547
354.70	0.26022
355.60	0.26129
356.40	0.26548
357.30	0.26857
358.10	0.27053
359.00	0.27579
359.80	0.28035
360.70	0.28119
361.50	0.28881
362.40	0.29161
363.30	0.29556
364.10	0.29928
365.00	0.30562
365.80	0.30715
366.70	0.31131
367.50	0.31659
368.40	0.32205
369.20	0.32290
370.10	0.33027
370.90	0.33255
371.80	0.33936
372.60	0.34342
373.50	0.35050
374.30	0.35140
375.20	0.35466
376.10	0.35983
376.90	0.36390
377.80	0.36629
378.60	0.37005
379.50	0.37126
380.30	0.37426
381.20	0.37625
382.00	0.37599
382.90	0.37613
383.70	0.37541
384.60	0.37338
385.40	0.37331
386.30	0.37123
387.10	0.36874
388.00	0.36938
388.90	0.36743
389.70	0.36531
390.60	0.36487
391.40	0.36423
392.30	0.36193
393.10	0.36372
394.00	0.36259
394.80	0.36344
395.70	0.36179
396.50	0.36565
397.40	0.36740
398.20	0.37194
399.10	0.37891
399.90	0.38460
400.80	0.39528
401.70	0.40306
402.50	0.41577
403.40	0.43223
404.20	0.44798
405.10	0.46251
405.90	0.48172
406.80	0.50039
407.60	0.51788
408.50	0.53815
409.30	0.55570
410.20	0.57231
411.00	0.58936
411.90	0.60558
412.70	0.61837
413.60	0.63169
414.50	0.64155
415.30	0.65122
416.20	0.65909
417.00	0.66389
417.90	0.66341
418.70	0.66632
419.60	0.66646
420.40	0.66836
421.30	0.66873
422.10	0.67225
423.00	0.67158
423.80	0.67666
424.70	0.68132
425.50	0.69100
426.40	0.70226
427.30	0.71868
428.10	0.73600
429.00	0.76091
429.80	0.78336
430.70	0.81060
431.50	0.83658
432.40	0.86571
433.20	0.89268
434.10	0.91851
434.90	0.94132
435.80	0.96174
436.60	0.97916
437.50	0.99157
438.30	0.99793
439.20	1.00000
440.10	0.99511
440.90	0.98439
441.80	0.96669
442.60	0.94322
443.50	0.90961
444.30	0.87274
445.20	0.82889
446.00	0.77978
446.90	0.72188
447.70	0.65518
448.60	0.59443
449.40	0.55225
450.30	0.50669
451.10	0.45242
452.00	0.40006
452.90	0.35166
453.70	0.30690
454.60	0.26702
455.40	0.23087
456.30	0.19775
457.10	0.16990
458.00	0.14852
458.80	0.12603
459.70	0.10871
460.50	0.093555
461.40	0.080716
462.20	0.070312
463.10	0.063378
463.90	0.054590
464.80	0.049700
465.70	0.044456
466.50	0.041093
467.40	0.037766
468.20	0.035323
469.10	0.033185
469.90	0.031483
470.80	0.029575
471.60	0.028162
472.50	0.028705
473.30	0.026767
474.20	0.026275
475.00	0.027163
475.90	0.026137
476.70	0.024103
477.60	0.024821
478.50	0.024512
479.30	0.024024
480.20	0.023304
481.00	0.024070
481.90	0.022982
482.70	0.023661
483.60	0.022304
484.40	0.022258
485.30	0.021711
486.10	0.021913
487.00	0.022217
487.80	0.022265
488.70	0.022005
489.50	0.021215
490.40	0.021911
491.30	0.020611
492.10	0.021239
493.00	0.023919
493.80	0.021477
494.70	0.021267
495.50	0.021260
496.40	0.022456
497.20	0.020632
498.10	0.022079
498.90	0.021396
499.80	0.020700
500.60	0.021015
501.50	0.019754
502.30	0.018905
503.20	0.021095
504.10	0.021084
504.90	0.020892
505.80	0.020152
506.60	0.020630
507.50	0.019466
508.30	0.020744
509.20	0.020015
510.00	0.019556
510.90	0.019964
511.70	0.020187
512.60	0.020392
513.40	0.020369
514.30	0.021261
515.10	0.020750
516.00	0.020801
516.90	0.021699
517.70	0.021896
518.60	0.022266
519.40	0.021597
520.30	0.022629
521.10	0.025204
522.00	0.024877
522.80	0.025557
523.70	0.026893
524.50	0.026890
525.40	0.026994
526.20	0.029050
527.10	0.030432
527.90	0.031260
528.80	0.030355
529.70	0.032016
530.50	0.031046
531.40	0.033436
532.20	0.033615
533.10	0.033700
533.90	0.033789
534.80	0.034822
535.60	0.034986
536.50	0.035322
537.30	0.036313
538.20	0.035592
539.00	0.036874
539.90	0.035751
540.70	0.035540
541.60	0.036757
542.50	0.035875
543.30	0.035285
544.20	0.035032
545.00	0.035522
545.90	0.034153
546.70	0.035614
547.60	0.033374
548.40	0.033300
549.30	0.032991
550.10	0.033711
551.00	0.032442
551.80	0.032436
552.70	0.031683
553.50	0.033266
554.40	0.032915
555.30	0.033714
556.10	0.032679
557.00	0.033512
557.80	0.033414
558.70	0.034205
559.50	0.034877
560.40	0.035549
561.20	0.034649
562.10	0.036466
562.90	0.036138
563.80	0.039630
564.60	0.039070
565.50	0.040383
566.30	0.041152
567.20	0.042356
568.10	0.042018
568.90	0.045442
569.80	0.043835
570.60	0.047585
571.50	0.047142
572.30	0.049008
573.20	0.048580
574.00	0.051484
574.90	0.051531
575.70	0.054009
576.60	0.053151
577.40	0.055438
578.30	0.054400
579.10	0.057396
580.00	0.056305
580.90	0.058230
581.70	0.059244
582.60	0.059793
583.40	0.059782
584.30	0.062159
585.10	0.061455
586.00	0.064137
586.80	0.062961
587.70	0.062055
588.50	0.062592
589.40	0.062792
590.20	0.061868
591.10	0.063629
591.90	0.063396
592.80	0.064971
593.70	0.063753
594.50	0.065868
595.40	0.066100
596.20	0.068768
597.10	0.069371
597.90	0.073252
598.80	0.074630
599.60	0.079125
600.50	0.081032
601.30	0.085540
602.20	0.086806
603.00	0.091990
603.90	0.094395
604.70	0.098500
605.60	0.10226
606.50	0.10703
607.30	0.10959
608.20	0.11457
609.00	0.11613
609.90	0.11915
610.70	0.12102
611.60	0.12377
612.40	0.12447
613.30	0.12760
614.10	0.12758
615.00	0.12948
615.80	0.13006
616.70	0.13231
617.50	0.13079
618.40	0.13370
619.30	0.13189
620.10	0.13127
621.00	0.13093
621.80	0.13049
622.70	0.12818
623.50	0.12741
624.40	0.12438
625.20	0.12344
626.10	0.11868
626.90	0.11744
627.80	0.11207
628.60	0.11030
629.50	0.10524
630.30	0.10406
631.20	0.099702
632.10	0.098367
632.90	0.094144
633.80	0.094604
634.60	0.091883
635.50	0.091764
636.30	0.089408
637.20	0.092736
638.00	0.090688
638.90	0.095197
639.70	0.095825
640.60	0.10118
641.40	0.10249
642.30	0.10875
643.10	0.11353
644.00	0.12282
644.90	0.13086
645.70	0.14284
646.60	0.15431
647.40	0.17086
648.30	0.18705
649.10	0.20916
650.00	0.23038
650.80	0.25722
651.70	0.28611
652.50	0.31997
653.40	0.35519
654.20	0.39493
655.10	0.43617
655.90	0.48066
656.80	0.52341
657.70	0.56739
658.50	0.60704
659.40	0.64724
660.20	0.67764
661.10	0.70536
661.90	0.72241
662.80	0.73446
663.60	0.73493
664.50	0.72620
665.30	0.70827
666.20	0.68432
667.00	0.65078
667.90	0.61206
668.70	0.56893
669.60	0.52166
670.50	0.47309
671.30	0.41728
672.20	0.36722
673.00	0.33153
673.90	0.29870
674.70	0.26053
675.60	0.22587
676.40	0.19481
677.30	0.16626
678.10	0.14097
679.00	0.12135
679.80	0.10276
680.70	0.084657
681.50	0.072884
682.40	0.060372
683.30	0.050822
684.10	0.043011
685.00	0.036047
685.80	0.031560
686.70	0.025255
687.50	0.020438
688.40	0.016954
689.20	0.016110
690.10	0.011332
690.90	0.011988
691.80	0.0096805
692.60	0.0081689
693.50	0.0064822
694.30	0.0052369
695.20	0.0048806
696.10	0.0050459
696.90	0.0043833
697.80	0.0038334
698.60	0.0025814
699.50	0.0029777
700.30	0.0014420
701.20	0.0034982
702.00	0.0018426
702.90	0.0017191
703.70	0.00085222
704.60	0.00091391
705.40	0.00096453
706.30	0.0022028
707.10	-0.00062306
708.00	0.0018194
708.90	-0.00017034
709.70	0.00028873
710.60	-0.00046913
711.40	-0.00094733
712.30	9.4574e-05
713.10	-0.0016679
714.00	0.00049073
714.80	-4.7849e-05
715.70	0.0012082
716.50	-0.0017443
717.40	-0.00039641
718.20	-0.00081101
719.10	0.00017339
719.90	-0.0016022
