Wavelength (nm)	"202, Inorg Chem 2006_1463, 10"
200.00	
201.00	
202.00	
203.00	
204.00	
205.00	
206.00	
207.00	
208.00	
209.00	
210.00	
211.00	
212.00	
213.00	
214.00	
215.00	
216.00	
217.00	
218.00	
219.00	
220.00	
221.00	
222.00	
223.00	
224.00	
225.00	
226.00	
227.00	
228.00	
229.00	
230.00	
231.00	
232.00	
233.00	
234.00	
235.00	
236.00	
237.00	
238.00	
239.00	
240.00	
241.00	
242.00	
243.00	
244.00	
245.00	
246.00	
247.00	
248.00	
249.00	
250.00	
251.00	
252.00	
253.00	
254.00	
255.00	
256.00	
257.00	
258.00	
259.00	
260.00	
261.00	
262.00	
263.00	
264.00	
265.00	
266.00	
267.00	
268.00	
269.00	
270.00	
271.00	
272.00	
273.00	
274.00	
275.00	
276.00	
277.00	
278.00	
279.00	
280.00	
281.00	
282.00	
283.00	
284.00	
285.00	
286.00	
287.00	
288.00	
289.00	
290.00	
291.00	
292.00	
293.00	
294.00	
295.00	
296.00	
297.00	
298.00	
299.00	
300.00	0.76949
301.00	0.77192
302.00	0.77435
303.00	0.77679
304.00	0.78089
305.00	0.78582
306.00	0.79075
307.00	0.79564
308.00	0.80038
309.00	0.80512
310.00	0.80986
311.00	0.81457
312.00	0.81880
313.00	0.82303
314.00	0.82726
315.00	0.83150
316.00	0.83594
317.00	0.84037
318.00	0.84481
319.00	0.84924
320.00	0.85368
321.00	0.85904
322.00	0.86450
323.00	0.86996
324.00	0.87541
325.00	0.88087
326.00	0.88632
327.00	0.89312
328.00	0.90161
329.00	0.91010
330.00	0.91860
331.00	0.92481
332.00	0.92969
333.00	0.93457
334.00	0.93943
335.00	0.94213
336.00	0.94483
337.00	0.94753
338.00	0.95015
339.00	0.95245
340.00	0.95475
341.00	0.95705
342.00	0.95754
343.00	0.95803
344.00	0.95852
345.00	0.95758
346.00	0.95664
347.00	0.95569
348.00	0.95218
349.00	0.94832
350.00	0.94446
351.00	0.93655
352.00	0.92636
353.00	0.91617
354.00	0.90334
355.00	0.89044
356.00	0.87631
357.00	0.85322
358.00	0.83128
359.00	0.81107
360.00	0.79411
361.00	0.77753
362.00	0.76645
363.00	0.76260
364.00	0.76517
365.00	0.76881
366.00	0.77343
367.00	0.77541
368.00	0.76988
369.00	0.75629
370.00	0.74184
371.00	0.72882
372.00	0.71983
373.00	0.71083
374.00	0.70425
375.00	0.69772
376.00	0.69119
377.00	0.68698
378.00	0.68292
379.00	0.67885
380.00	0.67542
381.00	0.67333
382.00	0.67123
383.00	0.66914
384.00	0.66704
385.00	0.66594
386.00	0.66517
387.00	0.66440
388.00	0.66363
389.00	0.66286
390.00	0.66412
391.00	0.66541
392.00	0.66670
393.00	0.66799
394.00	0.66927
395.00	0.67084
396.00	0.67313
397.00	0.67542
398.00	0.67771
399.00	0.68000
400.00	0.68268
401.00	0.68774
402.00	0.69281
403.00	0.69787
404.00	0.70293
405.00	0.70800
406.00	0.71303
407.00	0.71731
408.00	0.72159
409.00	0.72586
410.00	0.73014
411.00	0.73442
412.00	0.73936
413.00	0.74456
414.00	0.74977
415.00	0.75497
416.00	0.75967
417.00	0.76334
418.00	0.76701
419.00	0.77067
420.00	0.77281
421.00	0.77436
422.00	0.77590
423.00	0.77745
424.00	0.77665
425.00	0.77562
426.00	0.77446
427.00	0.77083
428.00	0.76720
429.00	0.76357
430.00	0.75892
431.00	0.75403
432.00	0.74913
433.00	0.74413
434.00	0.73868
435.00	0.73324
436.00	0.72779
437.00	0.72331
438.00	0.71887
439.00	0.71442
440.00	0.71051
441.00	0.70959
442.00	0.70868
443.00	0.70776
444.00	0.70717
445.00	0.70846
446.00	0.70975
447.00	0.71104
448.00	0.71232
449.00	0.71365
450.00	0.71849
451.00	0.72332
452.00	0.72816
453.00	0.73338
454.00	0.74005
455.00	0.74672
456.00	0.75339
457.00	0.76009
458.00	0.76798
459.00	0.77587
460.00	0.78377
461.00	0.79166
462.00	0.80159
463.00	0.81267
464.00	0.82376
465.00	0.83484
466.00	0.84642
467.00	0.85941
468.00	0.87240
469.00	0.88539
470.00	0.89830
471.00	0.91009
472.00	0.92188
473.00	0.93367
474.00	0.94433
475.00	0.95436
476.00	0.96438
477.00	0.97408
478.00	0.98332
479.00	0.98951
480.00	0.99266
481.00	0.99580
482.00	0.99797
483.00	0.99898
484.00	1.0000
485.00	0.99990
486.00	0.99980
487.00	0.99951
488.00	0.99785
489.00	0.99619
490.00	0.99155
491.00	0.98343
492.00	0.97158
493.00	0.95680
494.00	0.94147
495.00	0.92460
496.00	0.90774
497.00	0.89087
498.00	0.87258
499.00	0.85351
500.00	0.83445
501.00	0.81538
502.00	0.79632
503.00	0.77725
504.00	0.75328
505.00	0.72900
506.00	0.70471
507.00	0.68043
508.00	0.65614
509.00	0.63412
510.00	0.61355
511.00	0.59298
512.00	0.57241
513.00	0.55184
514.00	0.53128
515.00	0.51339
516.00	0.49660
517.00	0.47981
518.00	0.46302
519.00	0.44623
520.00	0.43136
521.00	0.41709
522.00	0.40283
523.00	0.38856
524.00	0.37430
525.00	0.36383
526.00	0.35425
527.00	0.34467
528.00	0.33509
529.00	0.32560
530.00	0.31770
531.00	0.30980
532.00	0.30190
533.00	0.29400
534.00	0.28711
535.00	0.28040
536.00	0.27368
537.00	0.26696
538.00	0.26113
539.00	0.25626
540.00	0.25139
541.00	0.24652
542.00	0.24184
543.00	0.23879
544.00	0.23575
545.00	0.23270
546.00	0.22966
547.00	0.22661
548.00	0.22357
549.00	0.22105
550.00	0.21865
551.00	0.21626
552.00	0.21386
553.00	0.21146
554.00	0.20955
555.00	0.20878
556.00	0.20800
557.00	0.20723
558.00	0.20646
559.00	0.20568
560.00	0.20511
561.00	0.20468
562.00	0.20426
563.00	0.20383
564.00	0.20340
565.00	0.20194
566.00	0.19918
567.00	0.19641
568.00	0.19364
569.00	0.19079
570.00	0.18783
571.00	0.18488
572.00	0.18192
573.00	0.17896
574.00	0.17601
575.00	0.17330
576.00	0.17068
577.00	0.16806
578.00	0.16544
579.00	0.16282
580.00	0.16021
581.00	0.15788
582.00	0.15562
583.00	0.15335
584.00	0.15109
585.00	0.14882
586.00	0.14669
587.00	0.14485
588.00	0.14301
589.00	0.14117
590.00	0.13912
591.00	0.13659
592.00	0.13407
593.00	0.13154
594.00	0.12902
595.00	0.12666
596.00	0.12460
597.00	0.12254
598.00	0.12047
599.00	0.11841
600.00	0.11635
601.00	0.11482
602.00	0.11358
603.00	0.11234
604.00	0.11110
605.00	0.10985
606.00	0.10891
607.00	0.10860
608.00	0.10829
609.00	0.10797
610.00	0.10766
611.00	0.10735
612.00	0.10704
613.00	0.10671
614.00	0.10635
615.00	0.10599
616.00	0.10562
617.00	0.10526
618.00	0.10490
619.00	0.10443
620.00	0.10351
621.00	0.10258
622.00	0.10165
623.00	0.10073
624.00	0.10168
625.00	0.10523
626.00	0.10852
627.00	0.11023
628.00	0.11195
629.00	0.11366
630.00	0.11657
631.00	0.11813
632.00	0.11190
633.00	0.10567
634.00	0.10477
635.00	0.10606
636.00	0.10735
637.00	0.10856
638.00	0.10956
639.00	0.11055
640.00	0.11155
641.00	0.11255
642.00	0.11354
643.00	0.11486
644.00	0.11670
645.00	0.11854
646.00	0.12038
647.00	0.12222
648.00	0.12406
649.00	0.12589
650.00	0.12773
651.00	0.12703
652.00	0.12219
653.00	0.11787
654.00	0.11816
655.00	0.11846
656.00	0.11873
657.00	0.11899
658.00	0.11925
659.00	0.12751
660.00	0.13588
661.00	0.13742
662.00	0.13897
663.00	0.14052
664.00	0.14206
665.00	0.14342
666.00	0.14457
667.00	0.14573
668.00	0.14689
669.00	0.14805
670.00	0.14920
671.00	0.15036
672.00	0.15152
673.00	0.15291
674.00	0.15434
675.00	0.15577
676.00	0.15720
677.00	0.15862
678.00	0.16005
679.00	0.16148
680.00	0.16291
681.00	0.16440
682.00	0.16641
683.00	0.16842
684.00	0.17043
685.00	0.17244
686.00	0.17446
687.00	0.17647
688.00	0.17848
689.00	0.18049
690.00	0.18250
691.00	0.18438
692.00	0.18626
693.00	0.18813
694.00	0.19001
695.00	0.19188
696.00	0.19376
697.00	0.19564
698.00	0.19751
699.00	0.19939
700.00	0.20127
701.00	0.20314
702.00	0.20502
703.00	0.20689
704.00	0.20871
705.00	0.21050
706.00	0.21228
707.00	0.21406
708.00	0.21585
709.00	0.21763
710.00	0.21942
711.00	0.22120
712.00	0.22299
713.00	0.22477
714.00	0.22655
715.00	0.22834
716.00	0.23040
717.00	0.23322
718.00	0.23603
719.00	0.23885
720.00	0.24167
721.00	0.24448
722.00	0.24730
723.00	0.25011
724.00	0.25293
725.00	0.25580
726.00	0.25900
727.00	0.26220
728.00	0.26540
729.00	0.26861
730.00	0.27181
731.00	0.27501
732.00	0.27872
733.00	0.28300
734.00	0.28728
735.00	0.29155
736.00	0.29583
737.00	0.30017
738.00	0.30487
739.00	0.30957
740.00	0.31427
741.00	0.31897
742.00	0.32255
743.00	0.32577
744.00	0.32898
745.00	0.33220
746.00	0.33519
747.00	0.33717
748.00	0.33915
749.00	0.34114
750.00	0.34312
751.00	0.34510
752.00	0.34708
753.00	0.34898
754.00	0.35033
755.00	0.35167
756.00	0.35302
757.00	0.35437
758.00	0.35571
759.00	0.35706
760.00	0.35841
761.00	0.35975
762.00	0.36097
763.00	0.36218
764.00	0.36338
765.00	0.36459
766.00	0.36580
767.00	0.36701
768.00	0.36822
769.00	0.36942
770.00	0.37063
771.00	0.37148
772.00	0.37226
773.00	0.37303
774.00	0.37380
775.00	0.37458
776.00	0.37535
777.00	0.37612
778.00	0.37680
779.00	0.37710
780.00	0.37739
781.00	0.37769
782.00	0.37798
783.00	0.37828
784.00	0.37858
785.00	0.37887
786.00	0.37946
787.00	0.38014
788.00	0.38081
789.00	0.38149
790.00	0.38217
791.00	0.38284
792.00	0.38352
793.00	0.38427
794.00	0.38539
795.00	0.38650
796.00	0.38762
797.00	0.38874
798.00	0.38986
799.00	0.39097
800.00	0.39209
801.00	0.39312
802.00	0.39413
803.00	0.39515
804.00	0.39617
805.00	0.39712
806.00	0.39757
807.00	0.39802
808.00	0.39846
809.00	0.39891
810.00	0.39952
811.00	0.40014
812.00	0.40076
813.00	0.40137
814.00	0.40199
815.00	0.40097
816.00	0.39996
817.00	0.39894
818.00	0.39792
819.00	0.39691
820.00	0.39545
821.00	0.39379
822.00	0.39214
823.00	0.39049
824.00	0.38883
825.00	0.38694
826.00	0.38474
827.00	0.38253
828.00	0.38033
829.00	0.37812
830.00	0.37592
831.00	0.37313
832.00	0.37025
833.00	0.36738
834.00	0.36450
835.00	0.36163
836.00	0.35875
837.00	0.35520
838.00	0.35134
839.00	0.34748
840.00	0.34363
841.00	0.33977
842.00	0.33591
843.00	0.33169
844.00	0.32737
845.00	0.32306
846.00	0.31874
847.00	0.31443
848.00	0.31012
849.00	0.30580
850.00	0.30007
851.00	0.29431
852.00	0.28856
853.00	0.28281
854.00	0.27706
855.00	0.27130
856.00	0.26555
857.00	0.26045
858.00	0.25545
859.00	0.25046
860.00	0.24547
861.00	0.24047
862.00	0.23548
863.00	0.23049
864.00	0.22549
865.00	0.22050
866.00	0.21551
867.00	0.21050
868.00	0.20549
869.00	0.20048
870.00	0.19547
871.00	0.19046
872.00	0.18544
873.00	0.18043
874.00	0.17550
875.00	0.17144
876.00	0.16738
877.00	0.16332
878.00	0.15926
879.00	0.15520
880.00	0.15114
881.00	0.14708
882.00	0.14302
883.00	0.13896
884.00	0.13545
885.00	0.13216
886.00	0.12886
887.00	0.12557
888.00	0.12228
889.00	0.11899
890.00	0.11570
891.00	0.11240
892.00	0.10911
893.00	0.10586
894.00	0.10373
895.00	0.10160
896.00	0.099464
897.00	0.097330
898.00	0.095197
899.00	0.093063
900.00	0.090930
901.00	0.088796
902.00	0.086662
903.00	0.084529
904.00	0.082437
905.00	0.080406
906.00	0.078374
907.00	0.076343
908.00	0.074311
909.00	0.072280
910.00	0.070248
911.00	0.068217
912.00	0.066186
913.00	0.064154
914.00	0.062123
915.00	0.060091
916.00	0.058086
917.00	0.056711
918.00	0.055336
919.00	0.053961
920.00	0.052586
921.00	0.051211
922.00	0.049836
923.00	0.048461
924.00	0.047086
925.00	0.045711
926.00	0.044336
927.00	0.042961
928.00	0.041816
929.00	0.040951
930.00	0.040086
931.00	0.039221
932.00	0.038356
933.00	0.037491
934.00	0.036626
935.00	0.035761
936.00	0.034897
937.00	0.034032
938.00	0.033167
939.00	0.032699
940.00	0.032319
941.00	0.031940
942.00	0.031560
943.00	0.031180
944.00	0.030800
945.00	0.030420
946.00	0.030040
947.00	0.029660
948.00	0.029201
949.00	0.028257
950.00	0.027312
951.00	0.026368
952.00	0.025424
953.00	0.024480
954.00	0.023535
955.00	0.022591
956.00	0.022681
957.00	0.022771
958.00	0.022861
959.00	0.022951
960.00	0.023040
961.00	0.023130
962.00	0.023079
963.00	0.022386
964.00	0.021693
965.00	0.021000
966.00	0.020307
967.00	0.019614
968.00	0.018921
969.00	0.018415
970.00	0.017910
971.00	0.017405
972.00	0.016901
973.00	0.016396
974.00	0.015892
975.00	0.015387
976.00	0.014575
977.00	0.013631
978.00	0.012687
979.00	0.011742
980.00	0.010798
981.00	0.0098538
982.00	0.0089096
983.00	0.0080887
984.00	0.0073648
985.00	0.0066409
986.00	0.0059169
987.00	0.0051930
988.00	0.0044691
989.00	0.0037452
990.00	0.0030212
991.00	0.0028480
992.00	0.0027100
993.00	0.0025720
994.00	0.0024339
995.00	0.0023169
996.00	0.0022209
997.00	0.0021249
998.00	0.0020288
999.00	0.0019328
1000.0	0.0018368
1001.0	
1002.0	
1003.0	
1004.0	
1005.0	
1006.0	
1007.0	
1008.0	
1009.0	
1010.0	
1011.0	
1012.0	
1013.0	
1014.0	
1015.0	
1016.0	
1017.0	
1018.0	
1019.0	
1020.0	
1021.0	
1022.0	
1023.0	
1024.0	
1025.0	
1026.0	
1027.0	
1028.0	
1029.0	
1030.0	
1031.0	
1032.0	
1033.0	
1034.0	
1035.0	
1036.0	
1037.0	
1038.0	
1039.0	
1040.0	
1041.0	
1042.0	
1043.0	
1044.0	
1045.0	
1046.0	
1047.0	
1048.0	
1049.0	
1050.0	
1051.0	
1052.0	
1053.0	
1054.0	
1055.0	
1056.0	
1057.0	
1058.0	
1059.0	
1060.0	
1061.0	
1062.0	
1063.0	
1064.0	
1065.0	
1066.0	
1067.0	
1068.0	
1069.0	
1070.0	
1071.0	
1072.0	
1073.0	
1074.0	
1075.0	
1076.0	
1077.0	
1078.0	
1079.0	
1080.0	
1081.0	
1082.0	
1083.0	
1084.0	
1085.0	
1086.0	
1087.0	
1088.0	
1089.0	
1090.0	
1091.0	
1092.0	
1093.0	
1094.0	
1095.0	
1096.0	
1097.0	
1098.0	
1099.0	
1100.0	
1101.0	
1102.0	
1103.0	
1104.0	
1105.0	
1106.0	
1107.0	
1108.0	
1109.0	
1110.0	
1111.0	
1112.0	
1113.0	
1114.0	
1115.0	
1116.0	
1117.0	
1118.0	
1119.0	
1120.0	
1121.0	
1122.0	
1123.0	
1124.0	
1125.0	
1126.0	
1127.0	
1128.0	
1129.0	
1130.0	
1131.0	
1132.0	
1133.0	
1134.0	
1135.0	
1136.0	
1137.0	
1138.0	
1139.0	
1140.0	
1141.0	
1142.0	
1143.0	
1144.0	
1145.0	
1146.0	
1147.0	
1148.0	
1149.0	
1150.0	
1151.0	
1152.0	
1153.0	
1154.0	
1155.0	
1156.0	
1157.0	
1158.0	
1159.0	
1160.0	
1161.0	
1162.0	
1163.0	
1164.0	
1165.0	
1166.0	
1167.0	
1168.0	
1169.0	
1170.0	
1171.0	
1172.0	
1173.0	
1174.0	
1175.0	
1176.0	
1177.0	
1178.0	
1179.0	
1180.0	
1181.0	
1182.0	
1183.0	
1184.0	
1185.0	
1186.0	
1187.0	
1188.0	
1189.0	
1190.0	
1191.0	
1192.0	
1193.0	
1194.0	
1195.0	
1196.0	
1197.0	
1198.0	
1199.0	
1200.0	
