Wavelength (nm)	H09 abs e
220.00	26156
220.25	24928
220.50	23948
220.75	22685
221.00	21571
221.25	20840
221.50	19687
221.75	18796
222.00	18025
222.25	17280
222.50	16502
222.75	15777
223.00	15130
223.25	14526
223.50	13972
223.75	13571
224.00	13120
224.25	12737
224.50	12368
224.75	11923
225.00	11635
225.25	11249
225.50	11015
225.75	10693
226.00	10495
226.25	10298
226.50	10199
226.75	9986.2
227.00	9832.7
227.25	9717.8
227.50	9551.4
227.75	9561.0
228.00	9379.2
228.25	9262.9
228.50	9289.2
228.75	9254.8
229.00	9204.3
229.25	9194.8
229.50	9141.9
229.75	9122.1
230.00	9163.0
230.25	9190.3
230.50	9252.4
230.75	9246.9
231.00	9192.0
231.25	9201.6
231.50	9224.4
231.75	9327.1
232.00	9354.3
232.25	9393.9
232.50	9422.2
232.75	9562.0
233.00	9533.4
233.25	9570.2
233.50	9628.8
233.75	9711.3
234.00	9724.0
234.25	9797.6
234.50	9806.1
234.75	9861.7
235.00	9948.3
235.25	10081
235.50	10211
235.75	10229
236.00	10290
236.25	10354
236.50	10501
236.75	10559
237.00	10586
237.25	10697
237.50	10830
237.75	10853
238.00	10921
238.25	11022
238.50	11100
238.75	11115
239.00	11213
239.25	11344
239.50	11455
239.75	11503
240.00	11551
240.25	11601
240.50	11706
240.75	11735
241.00	11818
241.25	11903
241.50	11985
241.75	12073
242.00	12156
242.25	12137
242.50	12216
242.75	12175
243.00	12291
243.25	12331
243.50	12249
243.75	12440
244.00	12400
244.25	12456
244.50	12486
244.75	12467
245.00	12466
245.25	12446
245.50	12526
245.75	12525
246.00	12581
246.25	12555
246.50	12566
246.75	12482
247.00	12577
247.25	12587
247.50	12591
247.75	12543
248.00	12572
248.25	12580
248.50	12546
248.75	12608
249.00	12582
249.25	12536
249.50	12544
249.75	12568
250.00	12626
250.25	12644
250.50	12587
250.75	12519
251.00	12578
251.25	12564
251.50	12575
251.75	12571
252.00	12560
252.25	12593
252.50	12589
252.75	12509
253.00	12591
253.25	12527
253.50	12528
253.75	12566
254.00	12501
254.25	12555
254.50	12543
254.75	12527
255.00	12573
255.25	12516
255.50	12571
255.75	12567
256.00	12544
256.25	12584
256.50	12638
256.75	12639
257.00	12545
257.25	12556
257.50	12589
257.75	12578
258.00	12604
258.25	12588
258.50	12579
258.75	12651
259.00	12618
259.25	12669
259.50	12695
259.75	12663
260.00	12632
260.25	12712
260.50	12682
260.75	12737
261.00	12717
261.25	12732
261.50	12685
261.75	12669
262.00	12722
262.25	12669
262.50	12649
262.75	12697
263.00	12687
263.25	12710
263.50	12656
263.75	12531
264.00	12581
264.25	12547
264.50	12497
264.75	12456
265.00	12466
265.25	12424
265.50	12330
265.75	12279
266.00	12271
266.25	12192
266.50	12187
266.75	12176
267.00	12114
267.25	12109
267.50	12044
267.75	11960
268.00	11919
268.25	11850
268.50	11830
268.75	11911
269.00	11855
269.25	11809
269.50	11762
269.75	11663
270.00	11630
270.25	11686
270.50	11657
270.75	11670
271.00	11705
271.25	11650
271.50	11643
271.75	11624
272.00	11607
272.25	11629
272.50	11573
272.75	11600
273.00	11633
273.25	11670
273.50	11651
273.75	11607
274.00	11643
274.25	11571
274.50	11674
274.75	11652
275.00	11689
275.25	11722
275.50	11697
275.75	11692
276.00	11751
276.25	11689
276.50	11620
276.75	11676
277.00	11703
277.25	11675
277.50	11673
277.75	11603
278.00	11561
278.25	11478
278.50	11505
278.75	11426
279.00	11411
279.25	11314
279.50	11299
279.75	11284
280.00	11163
280.25	11086
280.50	11137
280.75	10995
281.00	10983
281.25	10888
281.50	10783
281.75	10727
282.00	10633
282.25	10583
282.50	10496
282.75	10407
283.00	10373
283.25	10270
283.50	10155
283.75	10075
284.00	10019
284.25	9924.8
284.50	9915.3
284.75	9699.8
285.00	9647.9
285.25	9552.4
285.50	9449.8
285.75	9350.6
286.00	9267.0
286.25	9168.8
286.50	9126.2
286.75	9040.3
287.00	8883.8
287.25	8842.5
287.50	8710.2
287.75	8696.2
288.00	8575.2
288.25	8444.9
288.50	8459.2
288.75	8362.7
289.00	8251.9
289.25	8206.6
289.50	8069.8
289.75	7995.2
290.00	7956.3
290.25	7864.9
290.50	7799.1
290.75	7732.3
291.00	7654.8
291.25	7567.6
291.50	7621.4
291.75	7457.8
292.00	7421.6
292.25	7349.3
292.50	7307.4
292.75	7240.5
293.00	7238.8
293.25	7154.6
293.50	7038.7
293.75	7102.4
294.00	7018.2
294.25	6990.6
294.50	6932.6
294.75	6846.0
295.00	6797.9
295.25	6820.4
295.50	6752.6
295.75	6768.3
296.00	6695.3
296.25	6602.2
296.50	6615.2
296.75	6464.1
297.00	6484.2
297.25	6368.6
297.50	6350.2
297.75	6347.8
298.00	6224.1
298.25	6210.1
298.50	6161.3
298.75	6130.6
299.00	6060.7
299.25	5997.0
299.50	5976.5
299.75	5947.2
300.00	5812.5
300.25	5846.6
300.50	5777.7
300.75	5689.7
301.00	5652.9
301.25	5534.6
301.50	5574.1
301.75	5508.0
302.00	5455.5
302.25	5416.9
302.50	5344.0
302.75	5300.7
303.00	5301.7
303.25	5145.2
303.50	5158.5
303.75	5189.2
304.00	5185.4
304.25	5072.2
304.50	5037.8
304.75	4979.1
305.00	4997.5
305.25	4962.4
305.50	4871.0
305.75	4951.5
306.00	4864.9
306.25	4839.6
306.50	4788.5
306.75	4696.4
307.00	4706.7
307.25	4781.0
307.50	4634.4
307.75	4568.6
308.00	4644.9
308.25	4610.8
308.50	4623.1
308.75	4426.0
309.00	4437.3
309.25	4372.8
309.50	4411.0
309.75	4428.1
310.00	4254.5
310.25	4311.8
310.50	4338.7
310.75	3938.8
311.00	4175.1
311.25	4204.0
311.50	4114.4
311.75	3704.5
312.00	4037.0
312.25	3904.3
312.50	3891.4
312.75	3726.3
313.00	3808.8
313.25	3709.6
313.50	3683.4
313.75	3435.5
314.00	3636.3
314.25	3518.3
314.50	3478.1
314.75	3418.7
315.00	3371.4
315.25	3443.6
315.50	3289.5
315.75	3379.9
316.00	3299.7
316.25	3329.8
316.50	3203.9
316.75	3099.9
317.00	3381.9
317.25	3132.3
317.50	2910.7
317.75	3078.1
318.00	2830.2
318.25	3245.9
318.50	2892.3
318.75	2946.8
319.00	3038.9
319.25	2992.9
319.50	3196.4
319.75	2863.6
320.00	3160.3
320.25	2911.0
320.50	2984.7
320.75	3028.3
321.00	2922.3
321.25	2915.1
321.50	2704.7
321.75	2851.7
322.00	2791.3
322.25	3090.7
322.50	2570.4
322.75	2798.2
323.00	2740.5
323.25	2836.0
323.50	2687.7
323.75	2795.4
324.00	2732.3
324.25	2610.9
324.50	2612.0
324.75	2553.7
325.00	2610.6
325.25	2318.4
325.50	2316.0
325.75	2387.6
326.00	2534.6
326.25	2229.7
326.50	2237.6
326.75	2155.4
327.00	2402.6
327.25	2142.1
327.50	2066.0
327.75	2307.1
328.00	2213.0
328.25	2041.8
328.50	2346.3
328.75	1887.4
329.00	1874.8
329.25	1887.0
329.50	1781.7
329.75	1938.2
330.00	1885.7
330.25	1909.2
330.50	2023.1
330.75	2116.9
331.00	1904.4
331.25	1826.7
331.50	1995.8
331.75	2113.4
332.00	2065.7
332.25	1982.2
332.50	2176.5
332.75	2001.3
333.00	1849.9
333.25	2212.3
333.50	1978.1
333.75	2077.6
334.00	1899.0
334.25	2026.8
334.50	2117.5
334.75	2299.3
335.00	2247.5
335.25	2196.0
335.50	2164.9
335.75	2082.4
336.00	2431.2
336.25	2431.6
336.50	2392.4
336.75	2450.3
337.00	2346.3
337.25	2312.2
337.50	2727.9
337.75	2623.6
338.00	2473.5
338.25	2534.9
338.50	2684.6
338.75	2797.5
339.00	2767.8
339.25	2829.9
339.50	2906.2
339.75	2796.1
340.00	3065.8
340.25	3123.8
340.50	2878.3
340.75	3010.2
341.00	3310.3
341.25	3306.9
341.50	3368.3
341.75	3316.1
342.00	3480.5
342.25	3595.0
342.50	3596.4
342.75	3645.5
343.00	3785.3
343.25	3463.4
343.50	3783.6
343.75	3782.9
344.00	3945.2
344.25	4004.6
344.50	3925.1
344.75	4014.5
345.00	4225.9
345.25	4186.0
345.50	4173.4
345.75	4465.9
346.00	4326.1
346.25	4507.5
346.50	4619.4
346.75	4682.5
347.00	4730.5
347.25	4807.6
347.50	4790.2
347.75	4834.2
348.00	5038.4
348.25	5019.0
348.50	5241.0
348.75	5396.5
349.00	5478.0
349.25	5441.2
349.50	5740.9
349.75	5810.8
350.00	5824.4
350.25	5922.3
350.50	6104.0
350.75	6045.7
351.00	6224.4
351.25	6155.2
351.50	6470.6
351.75	6693.3
352.00	6505.0
352.25	6686.8
352.50	6779.5
352.75	6973.6
353.00	7030.8
353.25	6964.0
353.50	7005.3
353.75	7496.6
354.00	7382.4
354.25	7526.3
354.50	7654.8
354.75	7719.3
355.00	7886.7
355.25	8149.3
355.50	8089.9
355.75	8276.5
356.00	8792.7
356.25	8538.3
356.50	8719.4
356.75	8938.0
357.00	9194.4
357.25	9178.0
357.50	9245.9
357.75	9380.6
358.00	9565.7
358.25	9690.9
358.50	9581.1
358.75	9884.6
359.00	10147
359.25	10131
359.50	10147
359.75	10517
360.00	10534
360.25	10840
360.50	10831
360.75	11052
361.00	11228
361.25	11218
361.50	11469
361.75	11650
362.00	11676
362.25	12053
362.50	12046
362.75	12315
363.00	12409
363.25	12533
363.50	12690
363.75	12867
364.00	13113
364.25	13191
364.50	13426
364.75	13377
365.00	13629
365.25	13795
365.50	14106
365.75	14179
366.00	14366
366.25	14420
366.50	14494
366.75	14786
367.00	14976
367.25	14995
367.50	15220
367.75	15522
368.00	15798
368.25	15875
368.50	15964
368.75	16320
369.00	16408
369.25	16504
369.50	16661
369.75	17039
370.00	17262
370.25	17547
370.50	17565
370.75	17786
371.00	17918
371.25	18250
371.50	18315
371.75	18617
372.00	18622
372.25	18922
372.50	19243
372.75	19530
373.00	19638
373.25	19859
373.50	19930
373.75	20058
374.00	20181
374.25	20520
374.50	20643
374.75	20868
375.00	20844
375.25	20902
375.50	21297
375.75	21360
376.00	21589
376.25	21957
376.50	22273
376.75	22419
377.00	22889
377.25	22868
377.50	23157
377.75	23442
378.00	23614
378.25	23884
378.50	24206
378.75	24197
379.00	24648
379.25	24664
379.50	24985
379.75	25299
380.00	25463
380.25	25708
380.50	25803
380.75	26031
381.00	26301
381.25	26467
381.50	26606
381.75	26919
382.00	27299
382.25	27295
382.50	27668
382.75	27788
383.00	28061
383.25	28288
383.50	28419
383.75	28736
384.00	29057
384.25	29209
384.50	29245
384.75	29576
385.00	29838
385.25	30199
385.50	30243
385.75	30445
386.00	30539
386.25	30899
386.50	31109
386.75	31374
387.00	31501
387.25	31954
387.50	31995
387.75	32174
388.00	32477
388.25	32676
388.50	32892
388.75	32934
389.00	33260
389.25	33718
389.50	33583
389.75	34008
390.00	34149
390.25	34491
390.50	34677
390.75	34725
391.00	34891
391.25	35230
391.50	35442
391.75	35557
392.00	35644
392.25	35968
392.50	36122
392.75	36521
393.00	36561
393.25	36869
393.50	36912
393.75	37186
394.00	37381
394.25	37370
394.50	37623
394.75	37797
395.00	37916
395.25	38030
395.50	38489
395.75	38517
396.00	38716
396.25	38770
396.50	39194
396.75	39122
397.00	39355
397.25	39476
397.50	39498
397.75	39685
398.00	39800
398.25	40124
398.50	39998
398.75	40353
399.00	40523
399.25	40539
399.50	40421
399.75	40808
400.00	40858
400.25	41057
400.50	41052
400.75	41299
401.00	41277
401.25	41391
401.50	41390
401.75	41567
402.00	41491
402.25	41897
402.50	41817
402.75	41851
403.00	41907
403.25	41722
403.50	42212
403.75	42054
404.00	42152
404.25	42231
404.50	42169
404.75	42277
405.00	42446
405.25	42329
405.50	42473
405.75	42507
406.00	42665
406.25	42556
406.50	42540
406.75	42590
407.00	42509
407.25	42601
407.50	42800
407.75	42413
408.00	42663
408.25	42511
408.50	42446
408.75	42577
409.00	42514
409.25	42550
409.50	42417
409.75	42647
410.00	42359
410.25	42631
410.50	42360
410.75	42291
411.00	42219
411.25	42270
411.50	42106
411.75	41953
412.00	41928
412.25	41944
412.50	41801
412.75	41715
413.00	41464
413.25	41353
413.50	41325
413.75	41229
414.00	41067
414.25	41039
414.50	41012
414.75	40946
415.00	40776
415.25	40703
415.50	40571
415.75	40460
416.00	40186
416.25	40228
416.50	39891
416.75	39734
417.00	39461
417.25	39220
417.50	38964
417.75	39050
418.00	38804
418.25	38543
418.50	38423
418.75	38267
419.00	37895
419.25	37581
419.50	37567
419.75	37348
420.00	37081
420.25	36868
420.50	36583
420.75	36284
421.00	36134
421.25	35800
421.50	35492
421.75	35205
422.00	35070
422.25	34728
422.50	34590
422.75	34120
423.00	33918
423.25	33562
423.50	33329
423.75	33087
424.00	32653
424.25	32424
424.50	32211
424.75	31869
425.00	31508
425.25	31222
425.50	31012
425.75	30583
426.00	30356
426.25	29932
426.50	29777
426.75	29529
427.00	29063
427.25	28678
427.50	28473
427.75	28181
428.00	27827
428.25	27522
428.50	27130
428.75	26775
429.00	26502
429.25	26199
429.50	25777
429.75	25514
430.00	25202
430.25	24876
430.50	24623
430.75	24214
431.00	23859
431.25	23584
431.50	23233
431.75	23027
432.00	22575
432.25	22200
432.50	21859
432.75	21568
433.00	21217
433.25	20925
433.50	20652
433.75	20278
434.00	19969
434.25	19711
434.50	19394
434.75	18999
435.00	18708
435.25	18218
435.50	17922
435.75	17535
436.00	17233
436.25	16914
436.50	16564
436.75	16221
437.00	15995
437.25	15649
437.50	15305
437.75	15049
438.00	14818
438.25	14542
438.50	14245
438.75	14087
439.00	13748
439.25	13453
439.50	13110
439.75	12933
440.00	12659
440.25	12394
440.50	12328
440.75	11962
441.00	11724
441.25	11443
441.50	11091
441.75	10942
442.00	10712
442.25	10416
442.50	10213
442.75	10073
443.00	9783.0
443.25	9617.2
443.50	9362.9
443.75	9165.4
444.00	8863.7
444.25	8739.2
444.50	8584.7
444.75	8348.1
445.00	8135.0
445.25	7901.0
445.50	7725.1
445.75	7531.1
446.00	7370.5
446.25	7175.4
446.50	6930.6
446.75	6917.3
447.00	6685.1
447.25	6373.1
447.50	6288.8
447.75	6103.0
448.00	5997.3
448.25	5814.9
448.50	5714.6
448.75	5466.4
449.00	5327.6
449.25	5151.7
449.50	5113.1
449.75	4869.7
450.00	4819.2
450.25	4616.0
450.50	4445.8
450.75	4386.5
451.00	4186.3
451.25	4127.3
451.50	3970.1
451.75	3859.0
452.00	3722.2
452.25	3609.7
452.50	3547.0
452.75	3391.5
453.00	3341.0
453.25	3181.1
453.50	3074.0
453.75	3033.1
454.00	2900.4
454.25	2795.4
454.50	2700.6
454.75	2719.7
455.00	2634.5
455.25	2542.4
455.50	2373.6
455.75	2409.4
456.00	2209.9
456.25	2268.3
456.50	2221.2
456.75	2120.3
457.00	2015.6
457.25	1926.6
457.50	1897.9
457.75	1780.6
458.00	1755.7
458.25	1634.7
458.50	1631.6
458.75	1626.2
459.00	1510.9
459.25	1406.2
459.50	1426.7
459.75	1284.8
460.00	1251.4
460.25	1259.3
460.50	1165.8
460.75	1122.5
461.00	1024.0
461.25	1118.8
461.50	1015.8
461.75	966.02
462.00	881.80
462.25	873.95
462.50	932.26
462.75	863.38
463.00	770.29
463.25	707.89
463.50	757.68
463.75	707.55
464.00	651.29
464.25	637.65
464.50	681.64
464.75	616.17
465.00	662.20
465.25	544.56
465.50	539.44
465.75	525.46
466.00	429.30
466.25	491.71
466.50	482.84
466.75	497.84
467.00	475.34
467.25	369.97
467.50	394.52
467.75	379.52
468.00	334.17
468.25	358.04
468.50	413.96
468.75	373.72
469.00	317.46
469.25	326.67
469.50	285.75
469.75	214.82
470.00	279.95
470.25	233.24
470.50	258.47
470.75	275.52
471.00	229.49
471.25	297.00
471.50	230.17
471.75	156.17
472.00	139.12
472.25	228.80
472.50	205.96
472.75	224.37
473.00	265.97
473.25	245.85
473.50	159.92
473.75	143.22
474.00	233.24
474.25	179.02
474.50	111.16
474.75	124.80
475.00	40.578
475.25	96.159
475.50	49.443
475.75	185.16
476.00	-6.4788
476.25	80.473
476.50	63.765
476.75	99.910
477.00	97.864
477.25	128.55
477.50	148.33
477.75	49.443
478.00	87.634
478.25	9.5477
478.50	-12.617
478.75	166.06
479.00	102.64
479.25	118.66
479.50	40.578
479.75	108.09
480.00	49.784
480.25	70.244
480.50	-19.095
480.75	25.233
481.00	29.325
481.25	28.643
481.50	94.795
481.75	34.099
482.00	-17.731
482.25	28.302
482.50	80.473
482.75	-16.367
483.00	10.571
483.25	102.30
483.50	-22.164
483.75	69.903
484.00	16.367
484.25	-30.348
484.50	4.4328
484.75	67.516
485.00	71.267
485.25	-27.279
485.50	30.348
485.75	46.033
486.00	-18.072
486.25	51.830
486.50	18.072
486.75	54.899
487.00	-7.1608
487.25	10.230
487.50	31.371
487.75	-20.800
488.00	95.477
488.25	22.846
488.50	33.758
488.75	24.551
489.00	23.869
489.25	-29.666
489.50	50.807
489.75	-8.8657
490.00	-30.689
490.25	8.5247
490.50	18.072
490.75	27.620
491.00	50.466
491.25	-54.217
491.50	-83.883
491.75	-28.302
492.00	-6.8198
492.25	-19.095
492.50	19.777
492.75	16.026
493.00	5.0652e-07
493.25	48.420
493.50	-4.0919
493.75	34.781
494.00	82.860
494.25	-12.958
494.50	-15.003
494.75	-17.049
495.00	-36.486
495.25	33.076
495.50	-60.696
495.75	94.454
496.00	-100.93
496.25	20.459
496.50	34.440
496.75	37.509
497.00	22.846
497.25	0.34099
497.50	-12.617
497.75	-25.915
498.00	22.164
498.25	-6.1378
498.50	-3.4099
498.75	21.141
499.00	57.286
499.25	17.390
499.50	-32.053
499.75	1.0230
500.00	4.4328
