Wavelength (nm)	Chem Sci 2014_3388, Cu-1 abs [Z]
250.00	0.92424
251.00	0.88656
252.00	0.87633
253.00	0.90248
254.00	0.86228
255.00	0.78932
256.00	0.76736
257.00	0.75444
258.00	0.74766
259.00	0.74353
260.00	0.74747
261.00	0.74315
262.00	0.71333
263.00	0.69093
264.00	0.68545
265.00	0.66920
266.00	0.64982
267.00	0.63521
268.00	0.62368
269.00	0.62557
270.00	0.62746
271.00	0.62935
272.00	0.62848
273.00	0.62659
274.00	0.62251
275.00	0.61563
276.00	0.60876
277.00	0.59378
278.00	0.58146
279.00	0.57199
280.00	0.57485
281.00	0.58273
282.00	0.59709
283.00	0.60991
284.00	0.61623
285.00	0.61964
286.00	0.61938
287.00	0.61912
288.00	0.60605
289.00	0.61354
290.00	0.62256
291.00	0.63461
292.00	0.63343
293.00	0.64089
294.00	0.66028
295.00	0.68839
296.00	0.71257
297.00	0.71478
298.00	0.71698
299.00	0.72986
300.00	0.74360
301.00	0.75672
302.00	0.76983
303.00	0.78262
304.00	0.79478
305.00	0.80697
306.00	0.81920
307.00	0.84507
308.00	0.83911
309.00	0.83470
310.00	0.83904
311.00	0.84952
312.00	0.87305
313.00	0.89426
314.00	0.89840
315.00	0.88977
316.00	0.89338
317.00	0.90151
318.00	0.90965
319.00	0.89617
320.00	0.89976
321.00	0.90669
322.00	0.89582
323.00	0.89267
324.00	0.88975
325.00	0.89435
326.00	0.89895
327.00	0.90294
328.00	0.89532
329.00	0.88409
330.00	0.87192
331.00	0.86829
332.00	0.86466
333.00	0.85954
334.00	0.85126
335.00	0.84482
336.00	0.84029
337.00	0.83122
338.00	0.81589
339.00	0.80388
340.00	0.79654
341.00	0.80312
342.00	0.80971
343.00	0.80583
344.00	0.79458
345.00	0.77720
346.00	0.76272
347.00	0.76788
348.00	0.76928
349.00	0.75569
350.00	0.75303
351.00	0.75276
352.00	0.75238
353.00	0.75041
354.00	0.75090
355.00	0.75918
356.00	0.76289
357.00	0.76003
358.00	0.75716
359.00	0.76150
360.00	0.76673
361.00	0.76107
362.00	0.75301
363.00	0.74318
364.00	0.73278
365.00	0.72452
366.00	0.71868
367.00	0.71283
368.00	0.70549
369.00	0.69386
370.00	0.68224
371.00	0.67005
372.00	0.65641
373.00	0.64276
374.00	0.62757
375.00	0.61101
376.00	0.59445
377.00	0.57789
378.00	0.55932
379.00	0.54045
380.00	0.52159
381.00	0.50272
382.00	0.48924
383.00	0.47593
384.00	0.46262
385.00	0.44931
386.00	0.43647
387.00	0.42372
388.00	0.41097
389.00	0.39822
390.00	0.38566
391.00	0.37772
392.00	0.36978
393.00	0.36184
394.00	0.35390
395.00	0.34596
396.00	0.33983
397.00	0.33425
398.00	0.32867
399.00	0.32309
400.00	0.31751
401.00	0.31193
402.00	0.30635
403.00	0.30189
404.00	0.29801
405.00	0.29413
406.00	0.29026
407.00	0.28638
408.00	0.28250
409.00	0.27862
410.00	0.27474
411.00	0.27087
412.00	0.26782
413.00	0.26507
414.00	0.26233
415.00	0.25958
416.00	0.25684
417.00	0.25409
418.00	0.25135
419.00	0.24860
420.00	0.24586
421.00	0.24375
422.00	0.24180
423.00	0.23986
424.00	0.23792
425.00	0.23598
426.00	0.23403
427.00	0.23209
428.00	0.23015
429.00	0.22821
430.00	0.22626
431.00	0.22433
432.00	0.22263
433.00	0.22094
434.00	0.21924
435.00	0.21755
436.00	0.21585
437.00	0.21416
438.00	0.21246
439.00	0.21077
440.00	0.20908
441.00	0.20742
442.00	0.20577
443.00	0.20412
444.00	0.20246
445.00	0.20081
446.00	0.19915
447.00	0.19750
448.00	0.19585
449.00	0.19419
450.00	0.19092
451.00	0.18751
452.00	0.18410
453.00	0.18069
454.00	0.17728
455.00	0.17387
456.00	0.17046
457.00	0.16705
458.00	0.16394
459.00	0.16098
460.00	0.15803
461.00	0.15507
462.00	0.15212
463.00	0.14916
464.00	0.14621
465.00	0.14325
466.00	0.14030
467.00	0.13734
468.00	0.13439
469.00	0.13187
470.00	0.12991
471.00	0.12795
472.00	0.12599
473.00	0.12403
474.00	0.12207
475.00	0.12011
476.00	0.11815
477.00	0.11619
478.00	0.11423
479.00	0.11242
480.00	0.11165
481.00	0.11088
482.00	0.11011
483.00	0.10934
484.00	0.10857
485.00	0.10781
486.00	0.10704
487.00	0.10627
488.00	0.10550
489.00	0.10473
490.00	0.10464
491.00	0.10470
492.00	0.10476
493.00	0.10483
494.00	0.10489
495.00	0.10495
496.00	0.10501
497.00	0.10507
498.00	0.10513
499.00	0.10519
500.00	0.10526
501.00	0.10543
502.00	0.10637
503.00	0.10730
504.00	0.10824
505.00	0.10917
506.00	0.11011
507.00	0.11104
508.00	0.11198
509.00	0.11291
510.00	0.11496
511.00	0.11761
512.00	0.12026
513.00	0.12291
514.00	0.12556
515.00	0.12821
516.00	0.13085
517.00	0.13350
518.00	0.13615
519.00	0.13880
520.00	0.14215
521.00	0.14601
522.00	0.14988
523.00	0.15375
524.00	0.15762
525.00	0.16149
526.00	0.16536
527.00	0.16923
528.00	0.17376
529.00	0.17883
530.00	0.18390
531.00	0.18897
532.00	0.19404
533.00	0.19912
534.00	0.20419
535.00	0.20926
536.00	0.21433
537.00	0.21933
538.00	0.22399
539.00	0.22864
540.00	0.23329
541.00	0.23795
542.00	0.24260
543.00	0.24725
544.00	0.25190
545.00	0.25656
546.00	0.26121
547.00	0.26598
548.00	0.27204
549.00	0.27810
550.00	0.28417
551.00	0.29023
552.00	0.29629
553.00	0.30236
554.00	0.30842
555.00	0.31449
556.00	0.32055
557.00	0.32872
558.00	0.33788
559.00	0.34704
560.00	0.35620
561.00	0.36537
562.00	0.37453
563.00	0.38369
564.00	0.39310
565.00	0.40436
566.00	0.41563
567.00	0.42689
568.00	0.43815
569.00	0.44941
570.00	0.46067
571.00	0.47193
572.00	0.48296
573.00	0.49380
574.00	0.50463
575.00	0.51547
576.00	0.52631
577.00	0.53714
578.00	0.54798
579.00	0.55882
580.00	0.56679
581.00	0.57391
582.00	0.58102
583.00	0.58814
584.00	0.59386
585.00	0.59755
586.00	0.60125
587.00	0.60494
588.00	0.60864
589.00	0.61203
590.00	0.61354
591.00	0.61505
592.00	0.61657
593.00	0.61808
594.00	0.61959
595.00	0.62100
596.00	0.62226
597.00	0.62352
598.00	0.62478
599.00	0.62604
600.00	0.62730
601.00	0.62856
602.00	0.63187
603.00	0.63694
604.00	0.64200
605.00	0.64707
606.00	0.65213
607.00	0.65879
608.00	0.66977
609.00	0.68075
610.00	0.69172
611.00	0.70270
612.00	0.71367
613.00	0.72465
614.00	0.73563
615.00	0.74962
616.00	0.76485
617.00	0.78008
618.00	0.79531
619.00	0.81054
620.00	0.82577
621.00	0.84100
622.00	0.85623
623.00	0.87225
624.00	0.89092
625.00	0.90959
626.00	0.92826
627.00	0.94090
628.00	0.95193
629.00	0.96296
630.00	0.97400
631.00	0.98137
632.00	0.98694
633.00	0.99250
634.00	0.99659
635.00	1.0000
636.00	0.99702
637.00	0.99404
638.00	0.98975
639.00	0.98293
640.00	0.97611
641.00	0.96603
642.00	0.95370
643.00	0.94136
644.00	0.92213
645.00	0.90158
646.00	0.88103
647.00	0.86048
648.00	0.83978
649.00	0.81416
650.00	0.78853
651.00	0.76291
652.00	0.73729
653.00	0.71004
654.00	0.68074
655.00	0.65143
656.00	0.62212
657.00	0.59562
658.00	0.57143
659.00	0.54724
660.00	0.52305
661.00	0.49885
662.00	0.47433
663.00	0.44949
664.00	0.42465
665.00	0.39982
666.00	0.37498
667.00	0.35719
668.00	0.34001
669.00	0.32283
670.00	0.30565
671.00	0.28847
672.00	0.27544
673.00	0.26298
674.00	0.25052
675.00	0.23806
676.00	0.22560
677.00	0.21438
678.00	0.20520
679.00	0.19601
680.00	0.18683
681.00	0.17765
682.00	0.16846
683.00	0.16125
684.00	0.15432
685.00	0.14738
686.00	0.14044
687.00	0.13350
688.00	0.12686
689.00	0.12180
690.00	0.11675
691.00	0.11169
692.00	0.10663
693.00	0.10158
694.00	0.096521
695.00	0.092750
696.00	0.089432
697.00	0.086114
698.00	0.082795
699.00	0.079477
700.00	0.076158
701.00	0.072840
702.00	0.069522
703.00	0.066475
704.00	0.064201
705.00	0.061927
706.00	0.059653
707.00	0.057380
708.00	0.055106
709.00	0.052832
710.00	0.050558
711.00	0.048292
712.00	0.046792
713.00	0.045292
714.00	0.043792
715.00	0.042292
716.00	0.040791
717.00	0.039291
718.00	0.037791
719.00	0.036291
720.00	0.034791
721.00	0.033476
722.00	0.032449
723.00	0.031422
724.00	0.030395
725.00	0.029368
726.00	0.028341
727.00	0.027314
728.00	0.026288
729.00	0.025261
730.00	0.024234
731.00	0.023207
732.00	0.022518
733.00	0.021888
734.00	0.021259
735.00	0.020629
736.00	0.020000
737.00	0.019370
738.00	0.018740
739.00	0.018111
740.00	0.017481
741.00	0.016852
742.00	0.016222
743.00	0.015691
744.00	0.015313
745.00	0.014935
746.00	0.014557
747.00	0.014180
748.00	0.013802
749.00	0.013424
750.00	0.013046
751.00	0.012669
752.00	0.012291
753.00	0.011913
754.00	0.011535
755.00	0.011135
756.00	0.010732
757.00	0.010330
758.00	0.0099277
759.00	0.0095253
760.00	0.0091229
761.00	0.0087205
762.00	0.0083181
763.00	0.0079158
764.00	0.0075134
765.00	0.0071547
766.00	0.0070094
767.00	0.0068642
768.00	0.0067189
769.00	0.0065736
770.00	0.0064283
771.00	0.0062831
772.00	0.0061378
773.00	0.0059925
774.00	0.0058472
775.00	0.0057019
776.00	0.0055567
777.00	0.0054114
778.00	0.0052661
779.00	0.0051208
780.00	0.0049860
781.00	0.0048792
782.00	0.0047724
783.00	0.0046656
784.00	0.0045588
785.00	0.0044520
786.00	0.0043452
787.00	0.0042384
788.00	0.0041317
789.00	0.0040249
790.00	0.0039181
791.00	0.0038113
792.00	0.0037045
793.00	0.0035977
794.00	0.0034909
795.00	0.0033841
796.00	0.0032774
797.00	0.0031706
798.00	0.0030638
799.00	0.0029570
800.00	0.0028502
