Wavelength (nm)	24, (E)-Bos-DPxB, EBOSDPXB
205.00	0.61691
206.00	0.70755
207.00	0.77452
208.00	0.84149
209.00	0.88708
210.00	0.93267
211.00	0.95729
212.00	0.98191
213.00	0.99096
214.00	1.0000
215.00	0.99295
216.00	0.98587
217.00	0.96776
218.00	0.94965
219.00	0.92491
220.00	0.90016
221.00	0.86982
222.00	0.83948
223.00	0.80889
224.00	0.77831
225.00	0.75009
226.00	0.72187
227.00	0.69906
228.00	0.67626
229.00	0.65948
230.00	0.64271
231.00	0.63096
232.00	0.61922
233.00	0.61126
234.00	0.60330
235.00	0.59886
236.00	0.59442
237.00	0.59094
238.00	0.58746
239.00	0.58579
240.00	0.58411
241.00	0.58266
242.00	0.58120
243.00	0.57805
244.00	0.57489
245.00	0.56970
246.00	0.56450
247.00	0.55494
248.00	0.54539
249.00	0.53187
250.00	0.51835
251.00	0.50141
252.00	0.48448
253.00	0.46669
254.00	0.44890
255.00	0.43006
256.00	0.41122
257.00	0.39503
258.00	0.37884
259.00	0.36652
260.00	0.35420
261.00	0.34486
262.00	0.33552
263.00	0.33044
264.00	0.32535
265.00	0.32287
266.00	0.32038
267.00	0.32010
268.00	0.31983
269.00	0.32032
270.00	0.32081
271.00	0.32186
272.00	0.32291
273.00	0.32351
274.00	0.32410
275.00	0.32481
276.00	0.32551
277.00	0.32541
278.00	0.32531
279.00	0.32430
280.00	0.32329
281.00	0.32115
282.00	0.31900
283.00	0.31599
284.00	0.31298
285.00	0.30861
286.00	0.30425
287.00	0.29975
288.00	0.29526
289.00	0.28948
290.00	0.28370
291.00	0.27833
292.00	0.27295
293.00	0.26623
294.00	0.25951
295.00	0.25320
296.00	0.24689
297.00	0.24050
298.00	0.23411
299.00	0.22725
300.00	0.22039
301.00	0.21356
302.00	0.20673
303.00	0.20052
304.00	0.19430
305.00	0.18868
306.00	0.18306
307.00	0.17776
308.00	0.17247
309.00	0.16728
310.00	0.16209
311.00	0.15745
312.00	0.15281
313.00	0.14869
314.00	0.14457
315.00	0.14077
316.00	0.13698
317.00	0.13358
318.00	0.13018
319.00	0.12655
320.00	0.12291
321.00	0.12000
322.00	0.11709
323.00	0.11404
324.00	0.11098
325.00	0.10837
326.00	0.10577
327.00	0.10335
328.00	0.10093
329.00	0.098506
330.00	0.096083
331.00	0.094159
332.00	0.092234
333.00	0.090841
334.00	0.089448
335.00	0.087061
336.00	0.084674
337.00	0.083888
338.00	0.083103
339.00	0.081496
340.00	0.079890
341.00	0.079401
342.00	0.078912
343.00	0.078494
344.00	0.078077
345.00	0.077899
346.00	0.077721
347.00	0.077645
348.00	0.077569
349.00	0.077982
350.00	0.078395
351.00	0.079280
352.00	0.080165
353.00	0.081558
354.00	0.082951
355.00	0.083943
356.00	0.084935
357.00	0.087071
358.00	0.089206
359.00	0.090908
360.00	0.092609
361.00	0.095575
362.00	0.098542
363.00	0.10197
364.00	0.10540
365.00	0.10882
366.00	0.11223
367.00	0.11611
368.00	0.11998
369.00	0.12419
370.00	0.12839
371.00	0.13250
372.00	0.13661
373.00	0.14165
374.00	0.14669
375.00	0.15206
376.00	0.15742
377.00	0.16313
378.00	0.16884
379.00	0.17505
380.00	0.18126
381.00	0.18791
382.00	0.19456
383.00	0.20128
384.00	0.20801
385.00	0.21513
386.00	0.22225
387.00	0.22960
388.00	0.23696
389.00	0.24517
390.00	0.25339
391.00	0.26117
392.00	0.26894
393.00	0.27743
394.00	0.28592
395.00	0.29431
396.00	0.30271
397.00	0.31185
398.00	0.32099
399.00	0.32959
400.00	0.33819
401.00	0.34768
402.00	0.35717
403.00	0.36686
404.00	0.37655
405.00	0.38576
406.00	0.39498
407.00	0.40375
408.00	0.41252
409.00	0.42270
410.00	0.43289
411.00	0.44168
412.00	0.45048
413.00	0.45979
414.00	0.46911
415.00	0.47781
416.00	0.48651
417.00	0.49532
418.00	0.50414
419.00	0.51205
420.00	0.51995
421.00	0.52785
422.00	0.53575
423.00	0.54254
424.00	0.54933
425.00	0.55674
426.00	0.56415
427.00	0.57022
428.00	0.57629
429.00	0.58122
430.00	0.58615
431.00	0.59083
432.00	0.59551
433.00	0.59945
434.00	0.60338
435.00	0.60603
436.00	0.60867
437.00	0.61031
438.00	0.61196
439.00	0.61184
440.00	0.61172
441.00	0.61176
442.00	0.61180
443.00	0.61047
444.00	0.60914
445.00	0.60689
446.00	0.60463
447.00	0.60150
448.00	0.59836
449.00	0.59371
450.00	0.58905
451.00	0.58373
452.00	0.57842
453.00	0.57137
454.00	0.56433
455.00	0.55662
456.00	0.54891
457.00	0.53914
458.00	0.52936
459.00	0.52078
460.00	0.51219
461.00	0.50163
462.00	0.49107
463.00	0.47810
464.00	0.46512
465.00	0.45429
466.00	0.44345
467.00	0.43247
468.00	0.42148
469.00	0.40941
470.00	0.39734
471.00	0.38242
472.00	0.36750
473.00	0.35383
474.00	0.34017
475.00	0.32702
476.00	0.31387
477.00	0.30180
478.00	0.28973
479.00	0.27697
480.00	0.26421
481.00	0.25208
482.00	0.23994
483.00	0.22248
484.00	0.20502
485.00	0.19630
486.00	0.18759
487.00	0.18160
488.00	0.17560
489.00	0.16715
490.00	0.15870
491.00	0.14969
492.00	0.14067
493.00	0.13143
494.00	0.12220
495.00	0.11423
496.00	0.10627
497.00	0.099083
498.00	0.091893
499.00	0.085825
500.00	0.079757
501.00	0.074596
502.00	0.069434
503.00	0.064797
504.00	0.060160
505.00	0.056288
506.00	0.052415
507.00	0.049071
508.00	0.045728
509.00	0.042507
510.00	0.039287
511.00	0.036568
512.00	0.033848
513.00	0.032000
514.00	0.030151
515.00	0.027963
516.00	0.025775
517.00	0.024280
518.00	0.022785
519.00	0.021463
520.00	0.020142
521.00	0.019116
522.00	0.018091
523.00	0.016893
524.00	0.015695
525.00	0.014859
526.00	0.014024
527.00	0.013115
528.00	0.012206
529.00	0.011796
530.00	0.011385
531.00	0.010540
532.00	0.0096955
533.00	0.0090429
534.00	0.0083903
535.00	0.0081601
536.00	0.0079300
537.00	0.0074648
538.00	0.0069997
539.00	0.0067434
540.00	0.0064872
541.00	0.0062712
542.00	0.0060553
543.00	0.0059129
544.00	0.0057705
545.00	0.0054288
546.00	0.0050871
547.00	0.0053742
548.00	0.0056613
549.00	0.0055901
550.00	0.0055190
551.00	0.0054454
552.00	0.0053718
553.00	0.0053742
554.00	0.0053766
555.00	0.0055213
556.00	0.0056661
557.00	0.0057634
558.00	0.0058607
559.00	0.0056471
560.00	0.0054335
561.00	0.0054786
562.00	0.0055237
563.00	0.0056139
564.00	0.0057041
565.00	0.0050894
566.00	0.0044748
567.00	0.0029608
568.00	0.0014468
569.00	0.0011843
570.00	0.0037087
571.00	0.0047601
572.00	0.0026794
573.00	0.0065234
574.00	0.0061557
575.00	0.0054912
576.00	0.0048267
577.00	0.0050759
578.00	0.0053251
579.00	0.0043023
580.00	0.0032795
581.00	0.0049074
582.00	0.0036395
583.00	0.0026266
584.00	0.0036044
585.00	0.0076474
586.00	0.0024415
587.00	0.0018463
588.00	0.0016383
589.00	0.00055694
590.00	0.00091045
591.00	0.00085120
592.00	0.00023658
593.00	0.00015353
594.00	0.00070469
595.00	0.00054270
596.00	0.00070738
597.00	0.00087018
598.00	0.00072543
599.00	0.00077526
600.00	0.00082509
