Wavelength (nm)	D07 abs e
290.00	12388
290.25	12447
290.50	12464
290.75	12624
291.00	12607
291.25	12693
291.50	12744
291.75	12810
292.00	12867
292.25	12908
292.50	12952
292.75	12929
293.00	12981
293.25	12972
293.50	13105
293.75	13164
294.00	13168
294.25	13208
294.50	13219
294.75	13235
295.00	13225
295.25	13254
295.50	13338
295.75	13384
296.00	13430
296.25	13454
296.50	13496
296.75	13456
297.00	13467
297.25	13560
297.50	13594
297.75	13561
298.00	13575
298.25	13592
298.50	13539
298.75	13590
299.00	13583
299.25	13612
299.50	13662
299.75	13614
300.00	13601
300.25	13626
300.50	13639
300.75	13622
301.00	13595
301.25	13575
301.50	13555
301.75	13524
302.00	13478
302.25	13456
302.50	13405
302.75	13411
303.00	13457
303.25	13322
303.50	13310
303.75	13305
304.00	13178
304.25	13186
304.50	13222
304.75	13078
305.00	13072
305.25	13033
305.50	13015
305.75	12903
306.00	12836
306.25	12817
306.50	12795
306.75	12691
307.00	12624
307.25	12547
307.50	12459
307.75	12427
308.00	12357
308.25	12279
308.50	12278
308.75	12115
309.00	12067
309.25	12052
309.50	11994
309.75	11925
310.00	11846
310.25	11567
310.50	11712
310.75	11524
311.00	11368
311.25	11411
311.50	11462
311.75	11040
312.00	11077
312.25	11152
312.50	11177
312.75	11103
313.00	10874
313.25	10803
313.50	10925
313.75	10711
314.00	10541
314.25	10593
314.50	10466
314.75	10177
315.00	10102
315.25	10358
315.50	10140
315.75	9965.2
316.00	9926.6
316.25	9713.2
316.50	9701.6
316.75	9509.9
317.00	9160.0
317.25	9317.1
317.50	9302.0
317.75	9152.7
318.00	9156.9
318.25	8919.8
318.50	9008.6
318.75	8805.3
319.00	8649.1
319.25	8615.8
319.50	8508.6
319.75	8325.2
320.00	8389.0
320.25	8100.9
320.50	8294.9
320.75	8248.2
321.00	8096.1
321.25	7928.1
321.50	7864.3
321.75	8037.3
322.00	7761.8
322.25	7794.1
322.50	7683.4
322.75	7590.8
323.00	7217.2
323.25	7410.9
323.50	7169.0
323.75	7244.2
324.00	7186.9
324.25	7080.9
324.50	6958.3
324.75	6946.2
325.00	6872.1
325.25	6717.4
325.50	6739.1
325.75	6600.4
326.00	6630.9
326.25	6430.3
326.50	6486.8
326.75	6472.5
327.00	6338.5
327.25	6171.5
327.50	6235.6
327.75	6019.9
328.00	6072.1
328.25	5906.8
328.50	5950.7
328.75	5802.9
329.00	5756.5
329.25	5725.0
329.50	5959.6
329.75	5527.2
330.00	5496.4
330.25	5344.0
330.50	5607.1
330.75	5507.2
331.00	5250.7
331.25	5245.1
331.50	5133.6
331.75	5336.4
332.00	5081.1
332.25	5114.9
332.50	5037.7
332.75	5035.7
333.00	5003.4
333.25	4861.7
333.50	4806.4
333.75	4853.1
334.00	4810.2
334.25	4679.5
334.50	4685.8
334.75	4572.8
335.00	4647.5
335.25	4657.3
335.50	4685.6
335.75	4516.3
336.00	4495.1
336.25	4371.0
336.50	4467.1
336.75	4307.7
337.00	4380.6
337.25	4325.8
337.50	4333.9
337.75	4219.9
338.00	4326.8
338.25	4285.2
338.50	4123.2
338.75	4151.7
339.00	4080.4
339.25	4041.2
339.50	3979.2
339.75	4093.7
340.00	4044.8
340.25	4046.8
340.50	3841.2
340.75	3974.6
341.00	3921.9
341.25	3905.0
341.50	3854.1
341.75	3876.0
342.00	3827.8
342.25	3721.6
342.50	3775.8
342.75	3831.1
343.00	3868.4
343.25	3832.4
343.50	3660.1
343.75	3760.0
344.00	3794.3
344.25	3588.4
344.50	3764.0
344.75	3603.0
345.00	3808.4
345.25	3780.1
345.50	3770.0
345.75	3704.5
346.00	3777.1
346.25	3692.1
346.50	3693.9
346.75	3775.1
347.00	3718.8
347.25	3693.4
347.50	3641.6
347.75	3681.0
348.00	3673.4
348.25	3738.5
348.50	3767.0
348.75	3703.2
349.00	3812.7
349.25	3792.8
349.50	3811.9
349.75	3809.7
350.00	3687.3
350.25	3786.7
350.50	3829.1
350.75	3878.8
351.00	3901.5
351.25	3849.5
351.50	3924.2
351.75	3930.5
352.00	3953.5
352.25	3931.3
352.50	3978.2
352.75	4050.1
353.00	4038.0
353.25	4142.9
353.50	4226.9
353.75	4009.2
354.00	4187.8
354.25	4176.7
354.50	4180.8
354.75	4279.9
355.00	4318.8
355.25	4411.6
355.50	4380.6
355.75	4372.5
356.00	4411.6
356.25	4504.9
356.50	4529.4
356.75	4467.1
357.00	4565.7
357.25	4589.4
357.50	4725.4
357.75	4727.9
358.00	4795.3
358.25	4702.5
358.50	4991.3
358.75	5024.6
359.00	5018.1
359.25	5143.2
359.50	5073.6
359.75	5194.4
360.00	5243.4
360.25	5194.2
360.50	5257.0
360.75	5310.2
361.00	5386.9
361.25	5510.5
361.50	5564.0
361.75	5689.4
362.00	5695.4
362.25	5760.8
362.50	5653.8
362.75	5772.4
363.00	5825.6
363.25	5983.8
363.50	5958.6
363.75	6172.5
364.00	6165.7
364.25	6140.5
364.50	6177.3
364.75	6264.8
365.00	6329.7
365.25	6440.9
365.50	6483.3
365.75	6489.9
366.00	6627.9
366.25	6706.1
366.50	6741.4
366.75	6751.7
367.00	6893.5
367.25	7059.5
367.50	7027.2
367.75	7140.2
368.00	7199.3
368.25	7257.5
368.50	7314.8
368.75	7363.8
369.00	7492.9
369.25	7599.1
369.50	7592.6
369.75	7731.1
370.00	7764.4
370.25	7817.6
370.50	7928.9
370.75	7917.3
371.00	8035.6
371.25	8156.2
371.50	8231.8
371.75	8292.4
372.00	8343.3
372.25	8449.6
372.50	8552.7
372.75	8748.8
373.00	8739.7
373.25	8747.0
373.50	8865.1
373.75	9020.2
374.00	9007.3
374.25	9001.3
374.50	9109.8
374.75	9177.6
375.00	9060.1
375.25	9344.9
375.50	9392.6
375.75	9498.8
376.00	9601.7
376.25	9796.5
376.50	9816.9
376.75	10032
377.00	10155
377.25	10102
377.50	10204
377.75	10323
378.00	10382
378.25	10411
378.50	10617
378.75	10692
379.00	10790
379.25	10820
379.50	10918
379.75	11062
380.00	11160
380.25	11268
380.50	11323
380.75	11272
381.00	11564
381.25	11568
381.50	11784
381.75	11817
382.00	11919
382.25	12075
382.50	12123
382.75	12212
383.00	12255
383.25	12409
383.50	12407
383.75	12555
384.00	12706
384.25	12811
384.50	12837
384.75	13008
385.00	13128
385.25	13273
385.50	13269
385.75	13448
386.00	13618
386.25	13645
386.50	13636
386.75	13948
387.00	13950
387.25	14114
387.50	14167
387.75	14250
388.00	14383
388.25	14418
388.50	14629
388.75	14710
389.00	14777
389.25	14979
389.50	15076
389.75	15123
390.00	15260
390.25	15373
390.50	15506
390.75	15533
391.00	15582
391.25	15810
391.50	15961
391.75	16015
392.00	16043
392.25	16249
392.50	16357
392.75	16382
393.00	16516
393.25	16497
393.50	16617
393.75	16838
394.00	16938
394.25	17039
394.50	17074
394.75	17223
395.00	17460
395.25	17485
395.50	17615
395.75	17727
396.00	17910
396.25	17973
396.50	18093
396.75	18084
397.00	18294
397.25	18457
397.50	18458
397.75	18581
398.00	18759
398.25	18738
398.50	18835
398.75	19023
399.00	18989
399.25	19146
399.50	19227
399.75	19361
400.00	19499
400.25	19600
400.50	19661
400.75	19777
401.00	19878
401.25	19875
401.50	19993
401.75	20194
402.00	20177
402.25	20275
402.50	20399
402.75	20500
403.00	20605
403.25	20740
403.50	20868
403.75	20880
404.00	20972
404.25	21073
404.50	21168
404.75	21269
405.00	21344
405.25	21477
405.50	21514
405.75	21573
406.00	21712
406.25	21837
406.50	21934
406.75	22021
407.00	21994
407.25	22238
407.50	22256
407.75	22293
408.00	22363
408.25	22470
408.50	22555
408.75	22690
409.00	22669
409.25	22808
409.50	22898
409.75	22929
410.00	22969
410.25	23186
410.50	23462
410.75	23262
411.00	23352
411.25	23494
411.50	23532
411.75	23725
412.00	23650
412.25	23839
412.50	23866
412.75	23993
413.00	23994
413.25	24219
413.50	24232
413.75	24202
414.00	24349
414.25	24464
414.50	24390
414.75	24398
415.00	24532
415.25	24580
415.50	24690
415.75	24779
416.00	24801
416.25	24876
416.50	24854
416.75	24994
417.00	24985
417.25	25018
417.50	25166
417.75	25248
418.00	25310
418.25	25324
418.50	25425
418.75	25423
419.00	25493
419.25	25512
419.50	25619
419.75	25652
420.00	25654
420.25	25902
420.50	25881
420.75	25840
421.00	25881
421.25	26005
421.50	26128
421.75	26101
422.00	26089
422.25	26117
422.50	26209
422.75	26279
423.00	26189
423.25	26314
423.50	26319
423.75	26410
424.00	26383
424.25	26470
424.50	26569
424.75	26472
425.00	26481
425.25	26494
425.50	26468
425.75	26525
426.00	26594
426.25	26733
426.50	26727
426.75	26729
427.00	26731
427.25	26707
427.50	26667
427.75	26783
428.00	26792
428.25	26850
428.50	26834
428.75	26865
429.00	26842
429.25	26797
429.50	26871
429.75	26924
430.00	26844
430.25	26846
430.50	26840
430.75	26847
431.00	26833
431.25	26900
431.50	26867
431.75	26913
432.00	26913
432.25	27000
432.50	26873
432.75	26717
433.00	26905
433.25	26783
433.50	26896
433.75	26837
434.00	26882
434.25	26770
434.50	26808
434.75	26835
435.00	26800
435.25	26722
435.50	26688
435.75	26708
436.00	26605
436.25	26649
436.50	26558
436.75	26657
437.00	26528
437.25	26553
437.50	26633
437.75	26357
438.00	26427
438.25	26433
438.50	26379
438.75	26425
439.00	26333
439.25	26405
439.50	26195
439.75	26150
440.00	26133
440.25	26173
440.50	26164
440.75	26037
441.00	25890
441.25	26007
441.50	25904
441.75	25842
442.00	25883
442.25	25823
442.50	25743
442.75	25743
443.00	25650
443.25	25652
443.50	25502
443.75	25424
444.00	25403
444.25	25348
444.50	25218
444.75	25231
445.00	25140
445.25	25132
445.50	25053
445.75	24886
446.00	24941
446.25	24838
446.50	24786
446.75	24734
447.00	24579
447.25	24603
447.50	24473
447.75	24381
448.00	24324
448.25	24217
448.50	24153
448.75	24254
449.00	24096
449.25	23890
449.50	23853
449.75	23801
450.00	23741
450.25	23668
450.50	23534
450.75	23414
451.00	23454
451.25	23463
451.50	23195
451.75	23139
452.00	23066
452.25	22991
452.50	22843
452.75	22830
453.00	22667
453.25	22711
453.50	22515
453.75	22404
454.00	22310
454.25	22260
454.50	22295
454.75	22183
455.00	22068
455.25	21912
455.50	21892
455.75	21711
456.00	21591
456.25	21507
456.50	21444
456.75	21310
457.00	21188
457.25	21083
457.50	21031
457.75	20902
458.00	20775
458.25	20664
458.50	20671
458.75	20488
459.00	20328
459.25	20249
459.50	20140
459.75	20049
460.00	19922
460.25	19828
460.50	19736
460.75	19599
461.00	19480
461.25	19299
461.50	19234
461.75	19163
462.00	19015
462.25	18893
462.50	18850
462.75	18757
463.00	18559
463.25	18419
463.50	18297
463.75	18213
464.00	18184
464.25	17977
464.50	17884
464.75	17766
465.00	17678
465.25	17512
465.50	17396
465.75	17302
466.00	17190
466.25	17077
466.50	16932
466.75	16826
467.00	16770
467.25	16606
467.50	16490
467.75	16311
468.00	16230
468.25	16210
468.50	16037
468.75	15925
469.00	15809
469.25	15662
469.50	15530
469.75	15444
470.00	15285
470.25	15190
470.50	15030
470.75	14965
471.00	14822
471.25	14648
471.50	14534
471.75	14400
472.00	14352
472.25	14198
472.50	14148
472.75	13932
473.00	13816
473.25	13745
473.50	13625
473.75	13567
474.00	13382
474.25	13247
474.50	13162
474.75	13043
475.00	12853
475.25	12712
475.50	12649
475.75	12464
476.00	12368
476.25	12172
476.50	12102
476.75	11984
477.00	11833
477.25	11702
477.50	11585
477.75	11518
478.00	11463
478.25	11266
478.50	11133
478.75	11082
479.00	10975
479.25	10859
479.50	10748
479.75	10601
480.00	10541
480.25	10441
480.50	10325
480.75	10202
481.00	10074
481.25	9959.4
481.50	9824.0
481.75	9703.1
482.00	9673.6
482.25	9605.8
482.50	9377.7
482.75	9250.3
483.00	9203.1
483.25	9121.6
483.50	9037.4
483.75	8942.0
484.00	8859.5
484.25	8734.1
484.50	8579.5
484.75	8509.1
485.00	8358.2
485.25	8263.9
485.50	8182.4
485.75	8089.1
486.00	8021.7
486.25	7905.1
486.50	7844.3
486.75	7672.0
487.00	7575.7
487.25	7536.3
487.50	7424.0
487.75	7311.0
488.00	7157.4
488.25	7129.1
488.50	7006.0
488.75	6960.1
489.00	6851.4
489.25	6782.5
489.50	6666.5
489.75	6559.2
490.00	6446.0
490.25	6365.0
490.50	6302.7
490.75	6161.9
491.00	6120.3
491.25	6053.4
491.50	5912.1
491.75	5836.2
492.00	5737.3
492.25	5636.1
492.50	5596.5
492.75	5484.0
493.00	5384.4
493.25	5307.9
493.50	5258.2
493.75	5185.3
494.00	5132.9
494.25	5097.8
494.50	4999.4
494.75	4975.7
495.00	4808.4
495.25	4809.7
495.50	4690.6
495.75	4616.9
496.00	4547.8
496.25	4483.0
496.50	4496.1
496.75	4355.1
497.00	4218.3
497.25	4244.6
497.50	4081.4
497.75	3987.3
498.00	4018.8
498.25	3921.2
498.50	3821.8
498.75	3762.2
499.00	3717.1
499.25	3639.6
499.50	3538.2
499.75	3520.3
500.00	3464.8
500.25	3461.5
500.50	3343.4
500.75	3294.5
501.00	3219.6
501.25	3082.3
501.50	3118.7
501.75	3034.4
502.00	2988.7
502.25	2945.9
502.50	2875.0
502.75	2827.0
503.00	2745.0
503.25	2734.2
503.50	2643.6
503.75	2639.1
504.00	2606.5
504.25	2530.9
504.50	2511.2
504.75	2480.7
505.00	2424.6
505.25	2269.5
505.50	2278.3
505.75	2186.2
506.00	2263.4
506.25	2183.7
506.50	2096.2
506.75	2044.2
507.00	2062.6
507.25	2019.7
507.50	1930.2
507.75	1899.7
508.00	1851.2
508.25	1851.0
508.50	1845.2
508.75	1754.8
509.00	1711.0
509.25	1683.2
509.50	1656.7
509.75	1639.6
510.00	1546.2
510.25	1645.9
510.50	1551.3
510.75	1544.7
511.00	1501.1
511.25	1369.9
511.50	1414.5
511.75	1343.1
512.00	1329.5
512.25	1319.7
512.50	1296.0
512.75	1289.9
513.00	1285.4
513.25	1195.8
513.50	1198.8
513.75	1200.8
514.00	1148.6
514.25	1145.8
514.50	1122.1
514.75	1120.6
515.00	1071.9
515.25	1033.8
515.50	1005.6
515.75	979.60
516.00	894.33
516.25	863.04
516.50	922.58
516.75	985.65
517.00	900.89
517.25	915.77
517.50	877.17
517.75	846.39
518.00	753.30
518.25	804.77
518.50	782.82
518.75	701.59
519.00	748.26
519.25	706.38
519.50	748.01
519.75	676.11
520.00	738.17
520.25	627.42
520.50	683.42
520.75	630.44
521.00	583.02
521.25	634.73
521.50	546.69
521.75	602.19
522.00	556.02
522.25	616.57
522.50	506.32
522.75	609.76
523.00	600.67
523.25	549.97
523.50	535.33
523.75	504.30
524.00	473.53
524.25	516.16
524.50	437.45
524.75	441.49
525.00	435.94
525.25	435.68
525.50	469.74
525.75	363.79
526.00	417.52
526.25	416.01
526.50	426.10
526.75	374.89
527.00	411.72
527.25	394.56
527.50	339.82
527.75	368.07
528.00	367.57
528.25	299.96
528.50	366.56
528.75	348.65
529.00	308.28
529.25	357.98
529.50	324.93
529.75	274.23
530.00	330.99
530.25	293.15
530.50	268.42
530.75	300.21
531.00	266.66
531.25	268.68
531.50	223.01
531.75	227.30
532.00	255.31
532.25	257.58
532.50	270.19
532.75	227.81
533.00	293.15
533.25	259.34
533.50	255.81
533.75	220.24
534.00	257.32
534.25	141.78
534.50	206.36
534.75	235.88
535.00	219.73
535.25	289.87
535.50	159.94
535.75	244.71
536.00	140.77
536.25	258.84
536.50	149.35
536.75	224.02
537.00	229.07
537.25	124.12
537.50	145.82
537.75	155.15
538.00	177.86
538.25	174.07
538.50	188.45
538.75	181.39
539.00	224.28
539.25	117.06
539.50	164.23
539.75	155.40
540.00	209.39
540.25	200.06
540.50	183.41
540.75	112.01
541.00	205.86
541.25	134.46
541.50	155.40
541.75	142.54
542.00	86.279
542.25	208.13
542.50	68.620
542.75	206.36
543.00	116.30
543.25	170.54
543.50	147.33
543.75	137.24
544.00	178.61
544.25	108.98
544.50	150.61
544.75	131.94
545.00	104.95
545.25	189.21
545.50	137.24
545.75	112.01
546.00	91.577
546.25	80.225
546.50	88.550
546.75	127.15
547.00	83.756
547.25	132.70
547.50	122.35
547.75	105.20
548.00	106.46
548.25	114.03
548.50	121.85
548.75	129.42
549.00	117.81
549.25	108.48
549.50	74.927
549.75	107.22
550.00	68.367
550.25	53.483
550.50	31.283
550.75	76.188
551.00	97.379
551.25	153.64
551.50	127.15
551.75	113.78
552.00	124.63
552.25	61.304
552.50	162.21
552.75	58.276
553.00	117.06
553.25	155.15
553.50	108.23
553.75	111.25
554.00	81.486
554.25	80.981
554.50	97.884
554.75	155.15
555.00	167.01
555.25	154.14
555.50	121.85
555.75	73.161
556.00	74.927
556.25	134.97
556.50	-15.894
556.75	129.42
557.00	35.824
557.25	60.547
557.50	125.13
557.75	90.820
558.00	75.431
558.25	86.784
558.50	117.81
558.75	19.930
559.00	131.44
559.25	16.398
559.50	91.325
559.75	110.25
560.00	132.19
560.25	84.513
560.50	139.01
560.75	198.80
561.00	121.85
561.25	96.118
561.50	61.304
561.75	84.766
562.00	70.386
562.25	46.419
562.50	42.635
562.75	129.42
563.00	91.577
563.25	140.52
563.50	107.47
563.75	68.367
564.00	152.63
564.25	91.577
564.50	128.91
564.75	132.19
565.00	92.838
565.25	79.215
565.50	120.08
565.75	72.908
566.00	115.54
566.25	96.118
566.50	97.632
566.75	76.945
567.00	116.30
567.25	160.20
567.50	80.981
567.75	70.133
568.00	18.669
568.25	151.62
568.50	37.085
568.75	104.19
569.00	23.210
569.25	79.468
569.50	172.56
569.75	136.23
570.00	77.449
570.25	95.613
570.50	79.720
570.75	89.054
571.00	96.370
571.25	46.671
571.50	121.09
571.75	125.13
572.00	116.80
572.25	150.86
572.50	69.124
572.75	105.20
573.00	97.127
573.25	78.711
573.50	149.35
573.75	98.641
574.00	77.449
574.25	33.805
574.50	143.04
574.75	73.161
575.00	162.72
575.25	101.16
575.50	112.01
575.75	69.124
576.00	37.842
576.25	151.37
576.50	37.085
576.75	109.49
577.00	114.28
577.25	98.136
577.50	55.754
577.75	98.641
578.00	117.06
578.25	36.833
578.50	170.04
578.75	128.91
579.00	161.21
579.25	93.343
579.50	73.413
579.75	33.048
580.00	54.997
580.25	141.78
580.50	105.96
580.75	94.857
581.00	76.945
581.25	131.18
581.50	128.16
581.75	55.249
582.00	88.550
582.25	97.632
582.50	88.045
582.75	105.70
583.00	93.848
583.25	146.83
583.50	51.213
583.75	97.632
584.00	47.681
584.25	107.98
584.50	160.45
584.75	142.54
585.00	66.854
585.25	123.11
585.50	162.97
585.75	70.890
586.00	103.43
586.25	73.161
586.50	122.10
586.75	116.80
587.00	153.89
587.25	75.179
587.50	59.538
587.75	164.23
588.00	125.13
588.25	56.258
588.50	130.43
588.75	146.32
589.00	93.595
589.25	111.76
589.50	49.447
589.75	19.173
590.00	141.78
590.25	104.44
590.50	76.945
590.75	213.93
591.00	127.40
591.25	103.43
591.50	57.772
591.75	112.77
592.00	56.510
592.25	87.288
592.50	35.067
592.75	71.142
593.00	171.30
593.25	94.100
593.50	97.884
593.75	158.18
594.00	97.379
594.25	113.53
594.50	50.203
594.75	145.31
595.00	69.881
595.25	116.55
595.50	99.650
595.75	123.11
596.00	147.58
596.25	80.225
596.50	118.57
596.75	125.89
597.00	126.14
597.25	121.60
597.50	112.01
597.75	94.604
598.00	53.483
598.25	154.14
598.50	75.431
598.75	117.06
599.00	166.50
599.25	108.73
599.50	133.20
599.75	84.009
600.00	143.04
