Wavelength (nm)	Chem Sci 2014_3388, PiCC abs (MeOH) [Z]
250.00	0.23647
251.00	0.24299
252.00	0.24566
253.00	0.23193
254.00	0.23310
255.00	0.23668
256.00	0.24348
257.00	0.23928
258.00	0.24805
259.00	0.25682
260.00	0.24305
261.00	0.23880
262.00	0.26282
263.00	0.26622
264.00	0.25611
265.00	0.25312
266.00	0.26097
267.00	0.27191
268.00	0.25448
269.00	0.26508
270.00	0.28976
271.00	0.29066
272.00	0.26377
273.00	0.28059
274.00	0.29741
275.00	0.27111
276.00	0.29719
277.00	0.30032
278.00	0.30345
279.00	0.30987
280.00	0.31821
281.00	0.32775
282.00	0.33189
283.00	0.32783
284.00	0.34118
285.00	0.36199
286.00	0.36598
287.00	0.36257
288.00	0.37411
289.00	0.39095
290.00	0.41196
291.00	0.43017
292.00	0.43783
293.00	0.44550
294.00	0.45316
295.00	0.49014
296.00	0.49898
297.00	0.50783
298.00	0.51667
299.00	0.53799
300.00	0.55852
301.00	0.57125
302.00	0.58460
303.00	0.60623
304.00	0.62233
305.00	0.63492
306.00	0.64670
307.00	0.68092
308.00	0.66818
309.00	0.67348
310.00	0.68251
311.00	0.69178
312.00	0.70114
313.00	0.72206
314.00	0.71162
315.00	0.70118
316.00	0.69277
317.00	0.68827
318.00	0.69203
319.00	0.69207
320.00	0.67097
321.00	0.66619
322.00	0.65683
323.00	0.63779
324.00	0.61875
325.00	0.58837
326.00	0.58088
327.00	0.56893
328.00	0.54574
329.00	0.53036
330.00	0.52232
331.00	0.51537
332.00	0.48956
333.00	0.48076
334.00	0.47197
335.00	0.46191
336.00	0.43902
337.00	0.42056
338.00	0.40666
339.00	0.40773
340.00	0.37853
341.00	0.37101
342.00	0.36349
343.00	0.37225
344.00	0.36858
345.00	0.34300
346.00	0.32871
347.00	0.31725
348.00	0.30203
349.00	0.28870
350.00	0.27930
351.00	0.26991
352.00	0.26206
353.00	0.25402
354.00	0.24032
355.00	0.22621
356.00	0.21012
357.00	0.19810
358.00	0.18809
359.00	0.17718
360.00	0.15822
361.00	0.14418
362.00	0.13971
363.00	0.13524
364.00	0.12508
365.00	0.11152
366.00	0.10150
367.00	0.093541
368.00	0.086952
369.00	0.080652
370.00	0.074389
371.00	0.064750
372.00	0.047937
373.00	0.053418
374.00	0.056824
375.00	0.045425
376.00	0.043076
377.00	0.054881
378.00	0.052269
379.00	0.047490
380.00	0.040951
381.00	0.034413
382.00	0.031331
383.00	0.033656
384.00	0.035981
385.00	0.035262
386.00	0.029782
387.00	0.026332
388.00	0.044196
389.00	0.020944
390.00	0.030074
391.00	0.042802
392.00	0.033474
393.00	0.039463
394.00	0.041648
395.00	0.034105
396.00	0.041549
397.00	0.037972
398.00	0.037678
399.00	0.040201
400.00	0.043169
401.00	0.046137
402.00	0.044761
403.00	0.044239
404.00	0.047924
405.00	0.051609
406.00	0.055295
407.00	0.054565
408.00	0.052442
409.00	0.050319
410.00	0.054110
411.00	0.058020
412.00	0.061931
413.00	0.064518
414.00	0.066023
415.00	0.067527
416.00	0.069032
417.00	0.071085
418.00	0.074623
419.00	0.078161
420.00	0.081699
421.00	0.085412
422.00	0.089228
423.00	0.093044
424.00	0.096860
425.00	0.10078
426.00	0.10543
427.00	0.11008
428.00	0.11473
429.00	0.11938
430.00	0.12490
431.00	0.13094
432.00	0.13698
433.00	0.14302
434.00	0.14906
435.00	0.15785
436.00	0.16687
437.00	0.17168
438.00	0.17529
439.00	0.18257
440.00	0.19051
441.00	0.19887
442.00	0.20835
443.00	0.21783
444.00	0.22694
445.00	0.23510
446.00	0.24278
447.00	0.25008
448.00	0.25739
449.00	0.26975
450.00	0.28211
451.00	0.29447
452.00	0.30585
453.00	0.31651
454.00	0.32717
455.00	0.33782
456.00	0.34884
457.00	0.36073
458.00	0.37262
459.00	0.38451
460.00	0.39445
461.00	0.40407
462.00	0.41369
463.00	0.42332
464.00	0.43451
465.00	0.44611
466.00	0.45759
467.00	0.46907
468.00	0.48205
469.00	0.49516
470.00	0.50826
471.00	0.52136
472.00	0.53537
473.00	0.55259
474.00	0.56982
475.00	0.58704
476.00	0.60426
477.00	0.62145
478.00	0.63816
479.00	0.65487
480.00	0.67158
481.00	0.68829
482.00	0.70500
483.00	0.72046
484.00	0.73298
485.00	0.74551
486.00	0.76324
487.00	0.78279
488.00	0.79282
489.00	0.80285
490.00	0.81288
491.00	0.82047
492.00	0.82744
493.00	0.83442
494.00	0.83910
495.00	0.84321
496.00	0.84732
497.00	0.85144
498.00	0.85555
499.00	0.85899
500.00	0.86160
501.00	0.86421
502.00	0.86682
503.00	0.86944
504.00	0.87330
505.00	0.87832
506.00	0.88334
507.00	0.88859
508.00	0.89584
509.00	0.90309
510.00	0.91034
511.00	0.91766
512.00	0.92720
513.00	0.93674
514.00	0.94628
515.00	0.95568
516.00	0.96499
517.00	0.97429
518.00	0.98172
519.00	0.98790
520.00	0.99409
521.00	0.99821
522.00	0.99910
523.00	1.0000
524.00	0.99797
525.00	0.99593
526.00	0.99045
527.00	0.98454
528.00	0.97504
529.00	0.96237
530.00	0.94969
531.00	0.93701
532.00	0.91679
533.00	0.89562
534.00	0.87446
535.00	0.85330
536.00	0.83214
537.00	0.80914
538.00	0.78457
539.00	0.76001
540.00	0.73545
541.00	0.71088
542.00	0.68615
543.00	0.66143
544.00	0.63670
545.00	0.61197
546.00	0.58724
547.00	0.56252
548.00	0.53838
549.00	0.51514
550.00	0.49190
551.00	0.46866
552.00	0.44542
553.00	0.42453
554.00	0.40468
555.00	0.38484
556.00	0.36499
557.00	0.34514
558.00	0.32547
559.00	0.30704
560.00	0.28862
561.00	0.27019
562.00	0.25321
563.00	0.23778
564.00	0.22236
565.00	0.20693
566.00	0.19290
567.00	0.18086
568.00	0.16883
569.00	0.15679
570.00	0.14495
571.00	0.13444
572.00	0.12393
573.00	0.11342
574.00	0.10291
575.00	0.092400
576.00	0.084765
577.00	0.077988
578.00	0.071211
579.00	0.064434
580.00	0.057658
581.00	0.050881
582.00	0.046593
583.00	0.042330
584.00	0.038067
585.00	0.033804
586.00	0.029541
587.00	0.025687
588.00	0.023467
589.00	0.021248
590.00	0.019028
591.00	0.016809
592.00	0.014589
593.00	0.013020
594.00	0.011816
595.00	0.010613
596.00	0.0094097
597.00	0.0082064
598.00	0.0074308
599.00	0.0068299
600.00	0.0062290
601.00	0.0056282
602.00	0.0050273
603.00	0.0044264
604.00	0.0041666
605.00	0.0040460
606.00	0.0039254
607.00	0.0038048
608.00	0.0036842
609.00	0.0035636
610.00	0.0034430
611.00	0.0033224
612.00	0.0032018
613.00	0.0030812
614.00	0.0029606
615.00	0.0028400
616.00	0.0027723
617.00	0.0027047
618.00	0.0026370
619.00	0.0025693
620.00	0.0025017
621.00	0.0024340
622.00	0.0023663
623.00	0.0022987
624.00	0.0022310
625.00	0.0021633
626.00	0.0020957
627.00	0.0020280
628.00	0.0019603
629.00	0.0018927
630.00	0.0018250
631.00	0.0017517
632.00	0.0016784
633.00	0.0016051
634.00	0.0015318
635.00	0.0014585
636.00	0.0013852
637.00	0.0013119
638.00	0.0012386
639.00	0.0011653
640.00	0.0010920
641.00	0.0010187
642.00	0.00094539
643.00	0.00087209
644.00	0.00079879
645.00	0.00072549
646.00	0.00065219
647.00	0.00057888
648.00	0.00050558
649.00	0.00043228
650.00	0.00037584
651.00	0.00037584
652.00	0.00037584
653.00	0.00037584
654.00	0.00037584
655.00	0.00037584
656.00	0.00037584
657.00	0.00037584
658.00	0.00037584
659.00	0.00037584
660.00	0.00037584
661.00	0.00037584
662.00	0.00037584
663.00	0.00037584
664.00	0.00037584
665.00	0.00037584
666.00	0.00037584
667.00	0.00037584
668.00	0.00037584
669.00	0.00037584
670.00	0.00037584
671.00	0.00037584
672.00	0.00037584
673.00	0.00037584
674.00	0.00037584
675.00	0.00037584
676.00	0.00037584
677.00	0.00037584
678.00	0.00037584
679.00	0.00037584
680.00	0.00037584
681.00	0.00037584
682.00	0.00037584
683.00	0.00037584
684.00	0.00037584
685.00	0.00037584
686.00	0.00037584
687.00	0.00037584
688.00	0.00037584
689.00	0.00037584
690.00	0.00037584
691.00	0.00037584
692.00	0.00037584
693.00	0.00037584
694.00	0.00037584
695.00	0.00037584
696.00	0.00037584
697.00	0.00037584
698.00	0.00037584
699.00	0.00037584
700.00	0.00037584
