Wavelength (nm)	"164, SPIE 1994_2115_240, DOEB"
200.00	
201.00	
202.00	
203.00	
204.00	
205.00	
206.00	
207.00	
208.00	
209.00	
210.00	
211.00	
212.00	
213.00	
214.00	
215.00	
216.00	
217.00	
218.00	
219.00	
220.00	
221.00	
222.00	
223.00	
224.00	
225.00	
226.00	
227.00	
228.00	
229.00	
230.00	
231.00	
232.00	
233.00	
234.00	
235.00	
236.00	
237.00	
238.00	
239.00	
240.00	
241.00	
242.00	
243.00	
244.00	
245.00	
246.00	
247.00	
248.00	
249.00	
250.00	
251.00	
252.00	
253.00	
254.00	
255.00	
256.00	
257.00	
258.00	
259.00	
260.00	
261.00	
262.00	
263.00	
264.00	
265.00	
266.00	
267.00	
268.00	
269.00	
270.00	
271.00	
272.00	
273.00	
274.00	
275.00	
276.00	
277.00	
278.00	
279.00	
280.00	
281.00	
282.00	
283.00	
284.00	
285.00	
286.00	
287.00	
288.00	
289.00	
290.00	
291.00	
292.00	
293.00	
294.00	
295.00	
296.00	
297.00	
298.00	
299.00	
300.00	
301.00	
302.00	
303.00	
304.00	
305.00	
306.00	
307.00	
308.00	
309.00	
310.00	
311.00	
312.00	
313.00	
314.00	
315.00	
316.00	
317.00	
318.00	
319.00	
320.00	
321.00	
322.00	
323.00	
324.00	
325.00	
326.00	
327.00	
328.00	
329.00	
330.00	
331.00	
332.00	
333.00	
334.00	
335.00	
336.00	
337.00	
338.00	
339.00	
340.00	
341.00	
342.00	
343.00	
344.00	
345.00	
346.00	
347.00	
348.00	
349.00	
350.00	0.49802
351.00	0.50852
352.00	0.51901
353.00	0.52951
354.00	0.53960
355.00	0.54949
356.00	0.55938
357.00	0.56928
358.00	0.57953
359.00	0.58985
360.00	0.60017
361.00	0.61093
362.00	0.62192
363.00	0.63291
364.00	0.64269
365.00	0.65121
366.00	0.65307
367.00	0.65420
368.00	0.65123
369.00	0.64763
370.00	0.63681
371.00	0.62473
372.00	0.60652
373.00	0.58832
374.00	0.56902
375.00	0.54726
376.00	0.52551
377.00	0.50345
378.00	0.47934
379.00	0.45524
380.00	0.43237
381.00	0.41301
382.00	0.39366
383.00	0.37431
384.00	0.35620
385.00	0.33848
386.00	0.32076
387.00	0.30726
388.00	0.29680
389.00	0.28634
390.00	0.27589
391.00	0.26786
392.00	0.26060
393.00	0.25333
394.00	0.24607
395.00	0.23881
396.00	0.23250
397.00	0.22788
398.00	0.22327
399.00	0.21865
400.00	0.21404
401.00	0.20980
402.00	0.20666
403.00	0.20352
404.00	0.20038
405.00	0.19724
406.00	0.19410
407.00	0.19096
408.00	0.18843
409.00	0.18597
410.00	0.18350
411.00	0.18103
412.00	0.17857
413.00	0.17610
414.00	0.17408
415.00	0.17242
416.00	0.17076
417.00	0.16910
418.00	0.16745
419.00	0.16579
420.00	0.16413
421.00	0.16239
422.00	0.16037
423.00	0.15834
424.00	0.15631
425.00	0.15428
426.00	0.15225
427.00	0.15022
428.00	0.14813
429.00	0.14597
430.00	0.14381
431.00	0.14166
432.00	0.13950
433.00	0.13735
434.00	0.13519
435.00	0.13303
436.00	0.13068
437.00	0.12781
438.00	0.12494
439.00	0.12207
440.00	0.11920
441.00	0.11633
442.00	0.11346
443.00	0.11059
444.00	0.10774
445.00	0.10491
446.00	0.10209
447.00	0.099269
448.00	0.096447
449.00	0.093624
450.00	0.090802
451.00	0.087980
452.00	0.085157
453.00	0.081823
454.00	0.078300
455.00	0.074777
456.00	0.071254
457.00	0.067731
458.00	0.064208
459.00	0.060723
460.00	0.057967
461.00	0.055211
462.00	0.052455
463.00	0.049699
464.00	0.046942
465.00	0.044186
466.00	0.041430
467.00	0.038674
468.00	0.036797
469.00	0.035182
470.00	0.033567
471.00	0.031953
472.00	0.030338
473.00	0.028723
474.00	0.027108
475.00	0.025494
476.00	0.024858
477.00	0.024438
478.00	0.024018
479.00	0.023598
480.00	0.023177
481.00	0.022757
482.00	0.022337
483.00	0.021917
484.00	0.021497
485.00	0.021076
486.00	0.021091
487.00	0.021349
488.00	0.021608
489.00	0.021866
490.00	0.022125
491.00	0.022384
492.00	0.022642
493.00	0.022901
494.00	0.023419
495.00	0.024380
496.00	0.025340
497.00	0.026301
498.00	0.027261
499.00	0.028222
500.00	0.029182
501.00	0.030143
502.00	0.031103
503.00	0.032323
504.00	0.033848
505.00	0.035373
506.00	0.036898
507.00	0.038423
508.00	0.039948
509.00	0.041473
510.00	0.042998
511.00	0.044888
512.00	0.047130
513.00	0.049371
514.00	0.051613
515.00	0.053854
516.00	0.056096
517.00	0.058338
518.00	0.060579
519.00	0.062821
520.00	0.065906
521.00	0.069064
522.00	0.072222
523.00	0.075380
524.00	0.078539
525.00	0.081697
526.00	0.084855
527.00	0.088603
528.00	0.092403
529.00	0.096202
530.00	0.10000
531.00	0.10380
532.00	0.10760
533.00	0.11140
534.00	0.11606
535.00	0.12128
536.00	0.12651
537.00	0.13174
538.00	0.13697
539.00	0.14220
540.00	0.14742
541.00	0.15265
542.00	0.15855
543.00	0.16448
544.00	0.17041
545.00	0.17634
546.00	0.18227
547.00	0.18820
548.00	0.19413
549.00	0.20006
550.00	0.20613
551.00	0.21447
552.00	0.22281
553.00	0.23115
554.00	0.23948
555.00	0.24782
556.00	0.25616
557.00	0.26450
558.00	0.27284
559.00	0.28118
560.00	0.28952
561.00	0.29785
562.00	0.30757
563.00	0.31821
564.00	0.32885
565.00	0.33948
566.00	0.35012
567.00	0.36076
568.00	0.37139
569.00	0.38203
570.00	0.39267
571.00	0.40331
572.00	0.41394
573.00	0.42536
574.00	0.43765
575.00	0.44995
576.00	0.46224
577.00	0.47454
578.00	0.48683
579.00	0.49913
580.00	0.51142
581.00	0.52372
582.00	0.53601
583.00	0.54874
584.00	0.56175
585.00	0.57476
586.00	0.58776
587.00	0.60077
588.00	0.61377
589.00	0.62678
590.00	0.63979
591.00	0.65279
592.00	0.66580
593.00	0.67844
594.00	0.69095
595.00	0.70346
596.00	0.71598
597.00	0.72849
598.00	0.74100
599.00	0.75351
600.00	0.76602
601.00	0.77854
602.00	0.79105
603.00	0.80112
604.00	0.81086
605.00	0.82059
606.00	0.83033
607.00	0.84007
608.00	0.84981
609.00	0.85955
610.00	0.86928
611.00	0.87902
612.00	0.88876
613.00	0.89652
614.00	0.90344
615.00	0.91035
616.00	0.91727
617.00	0.92419
618.00	0.93110
619.00	0.93802
620.00	0.94494
621.00	0.95190
622.00	0.95885
623.00	0.96560
624.00	0.97150
625.00	0.97739
626.00	0.98183
627.00	0.98550
628.00	0.98918
629.00	0.99286
630.00	0.99600
631.00	0.99700
632.00	0.99800
633.00	0.99900
634.00	1.0000
635.00	0.99907
636.00	0.99814
637.00	0.99721
638.00	0.99551
639.00	0.99152
640.00	0.98753
641.00	0.98226
642.00	0.97498
643.00	0.96770
644.00	0.96042
645.00	0.95074
646.00	0.93925
647.00	0.92776
648.00	0.91627
649.00	0.90478
650.00	0.89176
651.00	0.87707
652.00	0.86238
653.00	0.84769
654.00	0.83300
655.00	0.81832
656.00	0.80319
657.00	0.78487
658.00	0.76654
659.00	0.74822
660.00	0.72990
661.00	0.71157
662.00	0.69231
663.00	0.67267
664.00	0.65303
665.00	0.63339
666.00	0.61375
667.00	0.59378
668.00	0.57304
669.00	0.55231
670.00	0.53158
671.00	0.51084
672.00	0.49087
673.00	0.47376
674.00	0.45665
675.00	0.43954
676.00	0.42243
677.00	0.40493
678.00	0.38730
679.00	0.36967
680.00	0.35204
681.00	0.33526
682.00	0.32046
683.00	0.30566
684.00	0.29086
685.00	0.27606
686.00	0.26351
687.00	0.25297
688.00	0.24243
689.00	0.23189
690.00	0.22135
691.00	0.21081
692.00	0.20087
693.00	0.19385
694.00	0.18684
695.00	0.17983
696.00	0.17281
697.00	0.16580
698.00	0.15879
699.00	0.15177
700.00	0.14602
701.00	0.14050
702.00	0.13497
703.00	0.12944
704.00	0.12392
705.00	0.11839
706.00	0.11287
707.00	0.10734
708.00	0.10181
709.00	0.096540
710.00	0.091857
711.00	0.087175
712.00	0.082492
713.00	0.077809
714.00	0.073126
715.00	0.068444
716.00	0.063761
717.00	0.060017
718.00	0.056284
719.00	0.052550
720.00	0.048816
721.00	0.045082
722.00	0.041625
723.00	0.038956
724.00	0.036287
725.00	0.033618
726.00	0.030949
727.00	0.028280
728.00	0.025611
729.00	0.023420
730.00	0.021574
731.00	0.019729
732.00	0.017883
733.00	0.016038
734.00	0.014349
735.00	0.013426
736.00	0.012504
737.00	0.011581
738.00	0.010658
739.00	0.0097356
740.00	0.0089130
741.00	0.0081221
742.00	0.0073311
743.00	0.0065402
744.00	0.0057493
745.00	0.0051843
746.00	0.0050388
747.00	0.0048934
748.00	0.0047479
749.00	0.0046025
750.00	0.0044570
751.00	0.0043116
752.00	0.0042371
753.00	0.0041974
754.00	0.0041578
755.00	0.0041182
756.00	0.0040786
757.00	0.0040390
758.00	0.0039994
759.00	0.0038184
760.00	0.0036359
761.00	
762.00	
763.00	
764.00	
765.00	
766.00	
767.00	
768.00	
769.00	
770.00	
771.00	
772.00	
773.00	
774.00	
775.00	
776.00	
777.00	
778.00	
779.00	
780.00	
781.00	
782.00	
783.00	
784.00	
785.00	
786.00	
787.00	
788.00	
789.00	
790.00	
791.00	
792.00	
793.00	
794.00	
795.00	
796.00	
797.00	
798.00	
799.00	
800.00	
801.00	
802.00	
803.00	
804.00	
805.00	
806.00	
807.00	
808.00	
809.00	
810.00	
811.00	
812.00	
813.00	
814.00	
815.00	
816.00	
817.00	
818.00	
819.00	
820.00	
821.00	
822.00	
823.00	
824.00	
825.00	
826.00	
827.00	
828.00	
829.00	
830.00	
831.00	
832.00	
833.00	
834.00	
835.00	
836.00	
837.00	
838.00	
839.00	
840.00	
841.00	
842.00	
843.00	
844.00	
845.00	
846.00	
847.00	
848.00	
849.00	
850.00	
851.00	
852.00	
853.00	
854.00	
855.00	
856.00	
857.00	
858.00	
859.00	
860.00	
861.00	
862.00	
863.00	
864.00	
865.00	
866.00	
867.00	
868.00	
869.00	
870.00	
871.00	
872.00	
873.00	
874.00	
875.00	
876.00	
877.00	
878.00	
879.00	
880.00	
881.00	
882.00	
883.00	
884.00	
885.00	
886.00	
887.00	
888.00	
889.00	
890.00	
891.00	
892.00	
893.00	
894.00	
895.00	
896.00	
897.00	
898.00	
899.00	
900.00	
901.00	
902.00	
903.00	
904.00	
905.00	
906.00	
907.00	
908.00	
909.00	
910.00	
911.00	
912.00	
913.00	
914.00	
915.00	
916.00	
917.00	
918.00	
919.00	
920.00	
921.00	
922.00	
923.00	
924.00	
925.00	
926.00	
927.00	
928.00	
929.00	
930.00	
931.00	
932.00	
933.00	
934.00	
935.00	
936.00	
937.00	
938.00	
939.00	
940.00	
941.00	
942.00	
943.00	
944.00	
945.00	
946.00	
947.00	
948.00	
949.00	
950.00	
951.00	
952.00	
953.00	
954.00	
955.00	
956.00	
957.00	
958.00	
959.00	
960.00	
961.00	
962.00	
963.00	
964.00	
965.00	
966.00	
967.00	
968.00	
969.00	
970.00	
971.00	
972.00	
973.00	
974.00	
975.00	
976.00	
977.00	
978.00	
979.00	
980.00	
981.00	
982.00	
983.00	
984.00	
985.00	
986.00	
987.00	
988.00	
989.00	
990.00	
991.00	
992.00	
993.00	
994.00	
995.00	
996.00	
997.00	
998.00	
999.00	
1000.0	
1001.0	
1002.0	
1003.0	
1004.0	
1005.0	
1006.0	
1007.0	
1008.0	
1009.0	
1010.0	
1011.0	
1012.0	
1013.0	
1014.0	
1015.0	
1016.0	
1017.0	
1018.0	
1019.0	
1020.0	
1021.0	
1022.0	
1023.0	
1024.0	
1025.0	
1026.0	
1027.0	
1028.0	
1029.0	
1030.0	
1031.0	
1032.0	
1033.0	
1034.0	
1035.0	
1036.0	
1037.0	
1038.0	
1039.0	
1040.0	
1041.0	
1042.0	
1043.0	
1044.0	
1045.0	
1046.0	
1047.0	
1048.0	
1049.0	
1050.0	
1051.0	
1052.0	
1053.0	
1054.0	
1055.0	
1056.0	
1057.0	
1058.0	
1059.0	
1060.0	
1061.0	
1062.0	
1063.0	
1064.0	
1065.0	
1066.0	
1067.0	
1068.0	
1069.0	
1070.0	
1071.0	
1072.0	
1073.0	
1074.0	
1075.0	
1076.0	
1077.0	
1078.0	
1079.0	
1080.0	
1081.0	
1082.0	
1083.0	
1084.0	
1085.0	
1086.0	
1087.0	
1088.0	
1089.0	
1090.0	
1091.0	
1092.0	
1093.0	
1094.0	
1095.0	
1096.0	
1097.0	
1098.0	
1099.0	
1100.0	
1101.0	
1102.0	
1103.0	
1104.0	
1105.0	
1106.0	
1107.0	
1108.0	
1109.0	
1110.0	
1111.0	
1112.0	
1113.0	
1114.0	
1115.0	
1116.0	
1117.0	
1118.0	
1119.0	
1120.0	
1121.0	
1122.0	
1123.0	
1124.0	
1125.0	
1126.0	
1127.0	
1128.0	
1129.0	
1130.0	
1131.0	
1132.0	
1133.0	
1134.0	
1135.0	
1136.0	
1137.0	
1138.0	
1139.0	
1140.0	
1141.0	
1142.0	
1143.0	
1144.0	
1145.0	
1146.0	
1147.0	
1148.0	
1149.0	
1150.0	
1151.0	
1152.0	
1153.0	
1154.0	
1155.0	
1156.0	
1157.0	
1158.0	
1159.0	
1160.0	
1161.0	
1162.0	
1163.0	
1164.0	
1165.0	
1166.0	
1167.0	
1168.0	
1169.0	
1170.0	
1171.0	
1172.0	
1173.0	
1174.0	
1175.0	
1176.0	
1177.0	
1178.0	
1179.0	
1180.0	
1181.0	
1182.0	
1183.0	
1184.0	
1185.0	
1186.0	
1187.0	
1188.0	
1189.0	
1190.0	
1191.0	
1192.0	
1193.0	
1194.0	
1195.0	
1196.0	
1197.0	
1198.0	
1199.0	
1200.0	
