Wavelength (nm)	18, (E)-Ep-PxB-5, EEpPxB5
205.00	0.36894
206.00	0.49343
207.00	0.59296
208.00	0.69248
209.00	0.76568
210.00	0.83887
211.00	0.88806
212.00	0.93725
213.00	0.96270
214.00	0.98815
215.00	0.99408
216.00	1.0000
217.00	0.98882
218.00	0.97763
219.00	0.95323
220.00	0.92882
221.00	0.89593
222.00	0.86304
223.00	0.82710
224.00	0.79116
225.00	0.76049
226.00	0.72981
227.00	0.70709
228.00	0.68438
229.00	0.66896
230.00	0.65355
231.00	0.64550
232.00	0.63745
233.00	0.63454
234.00	0.63162
235.00	0.63308
236.00	0.63454
237.00	0.63919
238.00	0.64385
239.00	0.65149
240.00	0.65912
241.00	0.66910
242.00	0.67907
243.00	0.68788
244.00	0.69668
245.00	0.70302
246.00	0.70936
247.00	0.71072
248.00	0.71208
249.00	0.70771
250.00	0.70333
251.00	0.69455
252.00	0.68577
253.00	0.67380
254.00	0.66183
255.00	0.64953
256.00	0.63722
257.00	0.62646
258.00	0.61570
259.00	0.60830
260.00	0.60090
261.00	0.59713
262.00	0.59337
263.00	0.59406
264.00	0.59475
265.00	0.59839
266.00	0.60202
267.00	0.60757
268.00	0.61311
269.00	0.61886
270.00	0.62461
271.00	0.63068
272.00	0.63675
273.00	0.64178
274.00	0.64682
275.00	0.65183
276.00	0.65684
277.00	0.66109
278.00	0.66534
279.00	0.66870
280.00	0.67207
281.00	0.67575
282.00	0.67944
283.00	0.68275
284.00	0.68606
285.00	0.69060
286.00	0.69514
287.00	0.70114
288.00	0.70714
289.00	0.71433
290.00	0.72152
291.00	0.73040
292.00	0.73928
293.00	0.75001
294.00	0.76075
295.00	0.77278
296.00	0.78481
297.00	0.79753
298.00	0.81024
299.00	0.82435
300.00	0.83845
301.00	0.85248
302.00	0.86651
303.00	0.88028
304.00	0.89405
305.00	0.90657
306.00	0.91910
307.00	0.92922
308.00	0.93935
309.00	0.94662
310.00	0.95389
311.00	0.95662
312.00	0.95935
313.00	0.95765
314.00	0.95595
315.00	0.94862
316.00	0.94128
317.00	0.92915
318.00	0.91701
319.00	0.89909
320.00	0.88117
321.00	0.85779
322.00	0.83440
323.00	0.80685
324.00	0.77929
325.00	0.74752
326.00	0.71576
327.00	0.68034
328.00	0.64493
329.00	0.60832
330.00	0.57170
331.00	0.53422
332.00	0.49674
333.00	0.46038
334.00	0.42402
335.00	0.39067
336.00	0.35731
337.00	0.32794
338.00	0.29857
339.00	0.27476
340.00	0.25094
341.00	0.23150
342.00	0.21205
343.00	0.19731
344.00	0.18257
345.00	0.17203
346.00	0.16149
347.00	0.15465
348.00	0.14781
349.00	0.14347
350.00	0.13914
351.00	0.13700
352.00	0.13486
353.00	0.13422
354.00	0.13359
355.00	0.13391
356.00	0.13423
357.00	0.13587
358.00	0.13751
359.00	0.14037
360.00	0.14324
361.00	0.14614
362.00	0.14904
363.00	0.15303
364.00	0.15702
365.00	0.16183
366.00	0.16664
367.00	0.17184
368.00	0.17704
369.00	0.18272
370.00	0.18840
371.00	0.19493
372.00	0.20147
373.00	0.20823
374.00	0.21499
375.00	0.22271
376.00	0.23042
377.00	0.23839
378.00	0.24636
379.00	0.25514
380.00	0.26392
381.00	0.27281
382.00	0.28169
383.00	0.29156
384.00	0.30143
385.00	0.31166
386.00	0.32189
387.00	0.33263
388.00	0.34337
389.00	0.35437
390.00	0.36537
391.00	0.37705
392.00	0.38872
393.00	0.40046
394.00	0.41221
395.00	0.42461
396.00	0.43702
397.00	0.44922
398.00	0.46142
399.00	0.47319
400.00	0.48495
401.00	0.49823
402.00	0.51150
403.00	0.52476
404.00	0.53801
405.00	0.55058
406.00	0.56315
407.00	0.57558
408.00	0.58802
409.00	0.60060
410.00	0.61318
411.00	0.62609
412.00	0.63900
413.00	0.65085
414.00	0.66271
415.00	0.67455
416.00	0.68640
417.00	0.69712
418.00	0.70785
419.00	0.71896
420.00	0.73007
421.00	0.73980
422.00	0.74953
423.00	0.75819
424.00	0.76685
425.00	0.77505
426.00	0.78325
427.00	0.79003
428.00	0.79681
429.00	0.80265
430.00	0.80849
431.00	0.81260
432.00	0.81671
433.00	0.82031
434.00	0.82391
435.00	0.82556
436.00	0.82720
437.00	0.82783
438.00	0.82845
439.00	0.82674
440.00	0.82504
441.00	0.82282
442.00	0.82059
443.00	0.81644
444.00	0.81229
445.00	0.80703
446.00	0.80176
447.00	0.79444
448.00	0.78712
449.00	0.77828
450.00	0.76944
451.00	0.75895
452.00	0.74846
453.00	0.73569
454.00	0.72292
455.00	0.70879
456.00	0.69465
457.00	0.67872
458.00	0.66279
459.00	0.64720
460.00	0.63161
461.00	0.61418
462.00	0.59674
463.00	0.57688
464.00	0.55703
465.00	0.53906
466.00	0.52110
467.00	0.50361
468.00	0.48611
469.00	0.46742
470.00	0.44873
471.00	0.42740
472.00	0.40608
473.00	0.38650
474.00	0.36693
475.00	0.34900
476.00	0.33107
477.00	0.31434
478.00	0.29760
479.00	0.28075
480.00	0.26390
481.00	0.24863
482.00	0.23335
483.00	0.21307
484.00	0.19278
485.00	0.18250
486.00	0.17221
487.00	0.16424
488.00	0.15626
489.00	0.14624
490.00	0.13623
491.00	0.12647
492.00	0.11671
493.00	0.10712
494.00	0.097530
495.00	0.089893
496.00	0.082256
497.00	0.075416
498.00	0.068576
499.00	0.062762
500.00	0.056948
501.00	0.052026
502.00	0.047104
503.00	0.043166
504.00	0.039227
505.00	0.035980
506.00	0.032734
507.00	0.029954
508.00	0.027174
509.00	0.024442
510.00	0.021711
511.00	0.019828
512.00	0.017945
513.00	0.016404
514.00	0.014863
515.00	0.013654
516.00	0.012445
517.00	0.011171
518.00	0.0098962
519.00	0.0093346
520.00	0.0087730
521.00	0.0081293
522.00	0.0074856
523.00	0.0066870
524.00	0.0058885
525.00	0.0053548
526.00	0.0048212
527.00	0.0044779
528.00	0.0041346
529.00	0.0037857
530.00	0.0034368
531.00	0.0030170
532.00	0.0025972
533.00	0.0022296
534.00	0.0018620
535.00	0.0017743
536.00	0.0016866
537.00	0.0015672
538.00	0.0014478
539.00	0.0010915
540.00	0.00073508
541.00	0.00064365
542.00	0.00055223
543.00	0.00055597
544.00	0.00055969
545.00	0.00029661
546.00	3.3533e-05
547.00	0.00023131
548.00	0.00042909
549.00	0.00063806
550.00	0.00084703
