Wavelength (nm)	N-5, 17372-87-1, Eosin Y.ems
500.00	80403
500.50	89930
501.00	96318
501.50	1.0812e+05
502.00	1.1786e+05
502.50	1.3530e+05
503.00	1.4409e+05
503.50	1.6631e+05
504.00	1.8025e+05
504.50	2.0994e+05
505.00	2.2581e+05
505.50	2.5805e+05
506.00	2.8308e+05
506.50	3.2836e+05
507.00	3.5620e+05
507.50	4.0857e+05
508.00	4.4527e+05
508.50	5.1815e+05
509.00	5.5947e+05
509.50	6.3601e+05
510.00	6.8945e+05
510.50	7.9956e+05
511.00	8.6099e+05
511.50	9.7857e+05
512.00	1.0580e+06
512.50	1.2173e+06
513.00	1.3055e+06
513.50	1.4730e+06
514.00	1.5877e+06
514.50	1.8206e+06
515.00	1.9378e+06
515.50	2.1860e+06
516.00	2.3606e+06
516.50	2.6675e+06
517.00	2.8398e+06
517.50	3.1659e+06
518.00	3.4064e+06
518.50	3.7986e+06
519.00	4.0213e+06
519.50	4.4333e+06
520.00	4.7412e+06
520.50	5.2440e+06
521.00	5.5078e+06
521.50	6.0264e+06
522.00	6.3996e+06
522.50	6.9856e+06
523.00	7.3178e+06
523.50	7.9244e+06
524.00	8.3224e+06
524.50	9.0032e+06
525.00	9.3707e+06
525.50	1.0020e+07
526.00	1.0421e+07
526.50	1.1171e+07
527.00	1.1527e+07
527.50	1.2191e+07
528.00	1.2600e+07
528.50	1.3310e+07
529.00	1.3629e+07
529.50	1.4223e+07
530.00	1.4617e+07
530.50	1.5234e+07
531.00	1.5543e+07
531.50	1.6072e+07
532.00	1.6401e+07
532.50	1.6891e+07
533.00	1.7149e+07
533.50	1.7552e+07
534.00	1.7819e+07
534.50	1.8186e+07
535.00	1.8395e+07
535.50	1.8708e+07
536.00	1.8902e+07
536.50	1.9201e+07
537.00	1.9356e+07
537.50	1.9576e+07
538.00	1.9729e+07
538.50	1.9921e+07
539.00	2.0038e+07
539.50	2.0173e+07
540.00	2.0276e+07
540.50	2.0370e+07
541.00	2.0435e+07
541.50	2.0490e+07
542.00	2.0542e+07
542.50	2.0554e+07
543.00	2.0586e+07
543.50	2.0583e+07
544.00	2.0582e+07
544.50	2.0528e+07
545.00	2.0527e+07
545.50	2.0462e+07
546.00	2.0431e+07
546.50	2.0330e+07
547.00	2.0304e+07
547.50	2.0189e+07
548.00	2.0127e+07
548.50	1.9960e+07
549.00	1.9907e+07
549.50	1.9742e+07
550.00	1.9660e+07
550.50	1.9428e+07
551.00	1.9353e+07
551.50	1.9148e+07
552.00	1.9033e+07
552.50	1.8767e+07
553.00	1.8683e+07
553.50	1.8435e+07
554.00	1.8286e+07
554.50	1.7993e+07
555.00	1.7878e+07
555.50	1.7611e+07
556.00	1.7463e+07
556.50	1.7166e+07
557.00	1.7055e+07
557.50	1.6792e+07
558.00	1.6652e+07
558.50	1.6343e+07
559.00	1.6216e+07
559.50	1.5959e+07
560.00	1.5816e+07
560.50	1.5505e+07
561.00	1.5393e+07
561.50	1.5113e+07
562.00	1.4967e+07
562.50	1.4668e+07
563.00	1.4550e+07
563.50	1.4277e+07
564.00	1.4143e+07
564.50	1.3851e+07
565.00	1.3751e+07
565.50	1.3491e+07
566.00	1.3358e+07
566.50	1.3116e+07
567.00	1.3016e+07
567.50	1.2801e+07
568.00	1.2676e+07
568.50	1.2443e+07
569.00	1.2344e+07
569.50	1.2153e+07
570.00	1.2048e+07
570.50	1.1846e+07
571.00	1.1772e+07
571.50	1.1606e+07
572.00	1.1507e+07
572.50	1.1336e+07
573.00	1.1280e+07
573.50	1.1127e+07
574.00	1.1056e+07
574.50	1.0894e+07
575.00	1.0835e+07
575.50	1.0710e+07
576.00	1.0641e+07
576.50	1.0502e+07
577.00	1.0456e+07
577.50	1.0349e+07
578.00	1.0284e+07
578.50	1.0167e+07
579.00	1.0129e+07
579.50	1.0027e+07
580.00	9.9831e+06
580.50	9.8786e+06
581.00	9.8442e+06
581.50	9.7629e+06
582.00	9.7306e+06
582.50	9.6215e+06
583.00	9.5903e+06
583.50	9.5121e+06
584.00	9.4679e+06
584.50	9.3662e+06
585.00	9.3278e+06
585.50	9.2331e+06
586.00	9.1992e+06
586.50	9.0870e+06
587.00	9.0534e+06
587.50	8.9437e+06
588.00	8.8894e+06
588.50	8.7734e+06
589.00	8.7276e+06
589.50	8.6247e+06
590.00	8.5647e+06
590.50	8.4415e+06
591.00	8.3924e+06
591.50	8.2834e+06
592.00	8.2171e+06
592.50	8.0980e+06
593.00	8.0331e+06
593.50	7.8971e+06
594.00	7.8406e+06
594.50	7.7027e+06
595.00	7.6445e+06
595.50	7.5207e+06
596.00	7.4494e+06
596.50	7.2965e+06
597.00	7.2489e+06
597.50	7.1082e+06
598.00	7.0358e+06
598.50	6.8835e+06
599.00	6.8128e+06
599.50	6.6779e+06
600.00	6.5925e+06
600.50	6.4376e+06
601.00	6.3659e+06
601.50	6.2469e+06
602.00	6.1581e+06
602.50	5.9960e+06
603.00	5.9359e+06
603.50	5.8047e+06
604.00	5.7309e+06
604.50	5.5825e+06
605.00	5.5214e+06
605.50	5.4132e+06
606.00	5.3483e+06
606.50	5.2018e+06
607.00	5.1481e+06
607.50	5.0280e+06
608.00	4.9670e+06
608.50	4.8396e+06
609.00	4.7761e+06
609.50	4.6652e+06
610.00	4.6034e+06
610.50	4.4745e+06
611.00	4.4279e+06
611.50	4.3207e+06
612.00	4.2569e+06
612.50	4.1393e+06
613.00	4.0961e+06
613.50	3.9935e+06
614.00	3.9407e+06
614.50	3.8298e+06
615.00	3.7903e+06
615.50	3.6960e+06
616.00	3.6529e+06
616.50	3.5517e+06
617.00	3.5173e+06
617.50	3.4283e+06
618.00	3.3797e+06
618.50	3.2878e+06
619.00	3.2565e+06
619.50	3.1691e+06
620.00	3.1337e+06
620.50	3.0610e+06
621.00	3.0285e+06
621.50	2.9556e+06
622.00	2.9335e+06
622.50	2.8661e+06
623.00	2.8291e+06
623.50	2.7666e+06
624.00	2.7283e+06
624.50	2.6569e+06
625.00	2.6286e+06
625.50	2.5656e+06
626.00	2.5291e+06
626.50	2.4635e+06
627.00	2.4348e+06
627.50	2.3836e+06
628.00	2.3489e+06
628.50	2.2902e+06
629.00	2.2741e+06
629.50	2.2322e+06
630.00	2.2037e+06
630.50	2.1509e+06
631.00	2.1339e+06
631.50	2.0897e+06
632.00	2.0726e+06
632.50	2.0231e+06
633.00	2.0155e+06
633.50	1.9803e+06
634.00	1.9586e+06
634.50	1.9281e+06
635.00	1.9115e+06
635.50	1.8717e+06
636.00	1.8552e+06
636.50	1.8126e+06
637.00	1.8002e+06
637.50	1.7642e+06
638.00	1.7512e+06
638.50	1.7140e+06
639.00	1.6967e+06
639.50	1.6731e+06
640.00	1.6565e+06
640.50	1.6268e+06
641.00	1.6102e+06
641.50	1.5871e+06
642.00	1.5702e+06
642.50	1.5453e+06
643.00	1.5326e+06
643.50	1.5045e+06
644.00	1.4908e+06
644.50	1.4633e+06
645.00	1.4489e+06
645.50	1.4257e+06
646.00	1.4180e+06
646.50	1.3883e+06
647.00	1.3754e+06
647.50	1.3539e+06
648.00	1.3418e+06
648.50	1.3106e+06
649.00	1.2996e+06
649.50	1.2744e+06
650.00	1.2595e+06
650.50	1.2336e+06
651.00	1.2226e+06
651.50	1.2032e+06
652.00	1.1861e+06
652.50	1.1595e+06
653.00	1.1527e+06
653.50	1.1269e+06
654.00	1.1228e+06
654.50	1.0970e+06
655.00	1.0877e+06
655.50	1.0624e+06
656.00	1.0532e+06
656.50	1.0264e+06
657.00	1.0186e+06
657.50	9.9962e+05
658.00	9.8663e+05
658.50	9.6337e+05
659.00	9.5391e+05
659.50	9.3806e+05
660.00	9.2562e+05
660.50	9.0567e+05
661.00	8.9791e+05
661.50	8.7220e+05
662.00	8.6531e+05
662.50	8.4411e+05
663.00	8.3328e+05
663.50	8.2028e+05
664.00	8.0847e+05
664.50	7.8818e+05
665.00	7.8116e+05
665.50	7.6068e+05
666.00	7.5654e+05
666.50	7.4267e+05
667.00	7.3510e+05
667.50	7.1381e+05
668.00	7.0831e+05
668.50	6.8913e+05
669.00	6.8776e+05
669.50	6.7124e+05
670.00	6.6407e+05
670.50	6.4649e+05
671.00	6.3743e+05
671.50	6.2645e+05
672.00	6.1886e+05
672.50	6.0270e+05
673.00	5.9463e+05
673.50	5.7969e+05
674.00	5.7566e+05
674.50	5.5999e+05
675.00	5.5348e+05
675.50	5.4039e+05
676.00	5.3603e+05
676.50	5.1730e+05
677.00	5.1760e+05
677.50	4.9888e+05
678.00	4.9705e+05
678.50	4.8426e+05
679.00	4.7814e+05
679.50	4.6807e+05
680.00	4.6367e+05
680.50	4.5290e+05
681.00	4.5059e+05
681.50	4.3706e+05
682.00	4.3180e+05
682.50	4.2454e+05
683.00	4.1843e+05
683.50	4.0651e+05
684.00	4.0564e+05
684.50	3.9542e+05
685.00	3.9292e+05
685.50	3.8058e+05
686.00	3.7800e+05
686.50	3.6933e+05
687.00	3.6641e+05
687.50	3.5915e+05
688.00	3.5585e+05
688.50	3.4609e+05
689.00	3.4712e+05
689.50	3.3602e+05
690.00	3.3600e+05
690.50	3.2816e+05
691.00	3.2286e+05
691.50	3.1669e+05
692.00	3.1735e+05
692.50	3.1234e+05
693.00	3.0925e+05
693.50	3.0123e+05
694.00	3.0231e+05
694.50	2.9003e+05
695.00	2.9210e+05
695.50	2.8315e+05
696.00	2.8277e+05
696.50	2.7651e+05
697.00	2.7533e+05
697.50	2.7234e+05
698.00	2.6499e+05
698.50	2.6110e+05
699.00	2.5864e+05
699.50	2.5381e+05
700.00	2.5501e+05
700.50	2.4824e+05
701.00	2.4459e+05
701.50	2.4007e+05
702.00	2.4064e+05
702.50	2.3614e+05
703.00	2.3567e+05
703.50	2.2866e+05
704.00	2.2879e+05
704.50	2.2337e+05
705.00	2.2456e+05
705.50	2.1795e+05
706.00	2.1716e+05
706.50	2.1567e+05
707.00	2.1475e+05
707.50	2.0814e+05
708.00	2.0886e+05
708.50	2.0237e+05
709.00	2.0222e+05
709.50	2.0182e+05
710.00	1.9808e+05
710.50	1.9418e+05
711.00	1.9441e+05
711.50	1.8995e+05
712.00	1.8931e+05
712.50	1.8806e+05
713.00	1.8350e+05
713.50	1.8326e+05
714.00	1.8066e+05
714.50	1.7819e+05
715.00	1.8034e+05
715.50	1.7465e+05
716.00	1.7493e+05
716.50	1.7220e+05
717.00	1.6931e+05
717.50	1.6663e+05
718.00	1.6730e+05
718.50	1.6366e+05
719.00	1.6617e+05
719.50	1.6495e+05
720.00	1.6131e+05
720.50	1.5913e+05
721.00	1.5703e+05
721.50	1.5515e+05
722.00	1.5554e+05
722.50	1.5079e+05
723.00	1.5251e+05
723.50	1.4818e+05
724.00	1.4831e+05
724.50	1.4640e+05
725.00	1.4367e+05
725.50	1.4272e+05
726.00	1.4033e+05
726.50	1.4142e+05
727.00	1.3921e+05
727.50	1.3790e+05
728.00	1.3524e+05
728.50	1.3331e+05
729.00	1.3289e+05
729.50	1.3336e+05
730.00	1.3282e+05
730.50	1.3037e+05
731.00	1.3041e+05
731.50	1.2667e+05
732.00	1.2747e+05
732.50	1.2575e+05
733.00	1.2630e+05
733.50	1.2323e+05
734.00	1.2369e+05
734.50	1.2102e+05
735.00	1.2284e+05
735.50	1.1922e+05
736.00	1.1949e+05
736.50	1.2004e+05
737.00	1.1824e+05
737.50	1.1640e+05
738.00	1.1495e+05
738.50	1.1327e+05
739.00	1.1408e+05
739.50	1.1177e+05
740.00	1.1056e+05
740.50	1.0930e+05
741.00	1.0841e+05
741.50	1.0728e+05
742.00	1.0631e+05
742.50	1.0422e+05
743.00	1.0404e+05
743.50	1.0079e+05
744.00	1.0283e+05
744.50	1.0239e+05
745.00	97746
745.50	1.0034e+05
746.00	99407
746.50	96384
747.00	96828
747.50	96184
748.00	95474
748.50	96056
749.00	95145
749.50	95111
750.00	92272
