Wavelength (nm)	CHL078_Chllide a, 90Ace (Clementson, 2019).abs
332.50	0.37464
333.40	0.36854
334.20	0.37649
335.10	0.37414
335.90	0.37244
336.80	0.37618
337.70	0.37277
338.50	0.37014
339.40	0.36913
340.20	0.37032
341.10	0.36814
341.90	0.37118
342.80	0.37035
343.60	0.36848
344.50	0.37548
345.30	0.37497
346.20	0.37361
347.00	0.37988
347.90	0.38203
348.70	0.38773
349.60	0.39613
350.50	0.40178
351.30	0.40629
352.20	0.41554
353.00	0.42221
353.90	0.42920
354.70	0.43391
355.60	0.44325
356.40	0.44968
357.30	0.46340
358.10	0.46851
359.00	0.47836
359.80	0.48721
360.70	0.49740
361.50	0.50374
362.40	0.51331
363.30	0.52251
364.10	0.53346
365.00	0.54330
365.80	0.55397
366.70	0.56572
367.50	0.57340
368.40	0.58492
369.20	0.59103
370.10	0.60268
370.90	0.61039
371.80	0.61894
372.60	0.62559
373.50	0.63252
374.30	0.64297
375.20	0.64711
376.10	0.65468
376.90	0.65843
377.80	0.66501
378.60	0.67014
379.50	0.67445
380.30	0.67876
381.20	0.68119
382.00	0.68776
382.90	0.69281
383.70	0.70045
384.60	0.70591
385.40	0.70692
386.30	0.71429
387.10	0.72117
388.00	0.72837
388.90	0.73539
389.70	0.74223
390.60	0.74965
391.40	0.75740
392.30	0.76401
393.10	0.77178
394.00	0.77951
394.80	0.78792
395.70	0.79451
396.50	0.80251
397.40	0.81310
398.20	0.82367
399.10	0.83299
399.90	0.84603
400.80	0.85708
401.70	0.87058
402.50	0.88421
403.40	0.90045
404.20	0.91513
405.10	0.93114
405.90	0.94694
406.80	0.96032
407.60	0.97163
408.50	0.98591
409.30	0.99133
410.20	0.99830
411.00	1.0000
411.90	0.99918
412.70	0.99317
413.60	0.98332
414.50	0.96722
415.30	0.95100
416.20	0.93085
417.00	0.91344
417.90	0.89665
418.70	0.87902
419.60	0.85542
420.40	0.83837
421.30	0.81892
422.10	0.80115
423.00	0.78539
423.80	0.77688
424.70	0.76520
425.50	0.76075
426.40	0.75434
427.30	0.75361
428.10	0.75142
429.00	0.75017
429.80	0.74808
430.70	0.74429
431.50	0.73857
432.40	0.72966
433.20	0.71529
434.10	0.69789
434.90	0.67363
435.80	0.64779
436.60	0.61398
437.50	0.58095
438.30	0.54148
439.20	0.50247
440.10	0.46113
440.90	0.42082
441.80	0.37948
442.60	0.34392
443.50	0.30699
444.30	0.27547
445.20	0.24341
446.00	0.21670
446.90	0.19000
447.70	0.16949
448.60	0.15150
449.40	0.14285
450.30	0.12906
451.10	0.11696
452.00	0.10854
452.90	0.10025
453.70	0.092932
454.60	0.087959
455.40	0.084041
456.30	0.079183
457.10	0.075100
458.00	0.073028
458.80	0.069775
459.70	0.067727
460.50	0.066216
461.40	0.063975
462.20	0.061735
463.10	0.060800
463.90	0.059766
464.80	0.059294
465.70	0.058103
466.50	0.056397
467.40	0.055852
468.20	0.055629
469.10	0.053038
469.90	0.052567
470.80	0.050435
471.60	0.052352
472.50	0.047653
473.30	0.049656
474.20	0.048410
475.00	0.047800
475.90	0.046580
476.70	0.047132
477.60	0.045769
478.50	0.045598
479.30	0.045090
480.20	0.044979
481.00	0.044189
481.90	0.044855
482.70	0.044532
483.60	0.043303
484.40	0.044016
485.30	0.044128
486.10	0.045771
487.00	0.046409
487.80	0.047557
488.70	0.049087
489.50	0.049308
490.40	0.053171
491.30	0.053058
492.10	0.054992
493.00	0.057631
493.80	0.060897
494.70	0.062560
495.50	0.065120
496.40	0.065563
497.20	0.068311
498.10	0.070794
498.90	0.071279
499.80	0.071802
500.60	0.074738
501.50	0.074635
502.30	0.076998
503.20	0.076249
504.10	0.077060
504.90	0.077382
505.80	0.078256
506.60	0.076907
507.50	0.076711
508.30	0.074972
509.20	0.074428
510.00	0.071972
510.90	0.068614
511.70	0.065664
512.60	0.063616
513.40	0.061618
514.30	0.060017
515.10	0.056942
516.00	0.056671
516.90	0.054458
517.70	0.053378
518.60	0.052190
519.40	0.051771
520.30	0.052743
521.10	0.052399
522.00	0.051534
522.80	0.053477
523.70	0.052591
524.50	0.055176
525.40	0.054524
526.20	0.056486
527.10	0.059142
527.90	0.061154
528.80	0.064269
529.70	0.066168
530.50	0.069995
531.40	0.072564
532.20	0.072787
533.10	0.075233
533.90	0.075968
534.80	0.078234
535.60	0.077166
536.50	0.077209
537.30	0.075938
538.20	0.072440
539.00	0.070374
539.90	0.066891
540.70	0.063830
541.60	0.061886
542.50	0.058808
543.30	0.055108
544.20	0.051857
545.00	0.051651
545.90	0.048726
546.70	0.047775
547.60	0.047101
548.40	0.046802
549.30	0.045953
550.10	0.047078
551.00	0.044833
551.80	0.046104
552.70	0.046213
553.50	0.046934
554.40	0.047818
555.30	0.049447
556.10	0.049328
557.00	0.050287
557.80	0.050359
558.70	0.052480
559.50	0.052947
560.40	0.053930
561.20	0.054820
562.10	0.056344
562.90	0.057300
563.80	0.058786
564.60	0.059482
565.50	0.061210
566.30	0.060429
567.20	0.060677
568.10	0.061743
568.90	0.063863
569.80	0.062749
570.60	0.064634
571.50	0.063910
572.30	0.065999
573.20	0.066210
574.00	0.068157
574.90	0.070112
575.70	0.068452
576.60	0.069162
577.40	0.069730
578.30	0.069679
579.10	0.071916
580.00	0.071705
580.90	0.070892
581.70	0.071038
582.60	0.071930
583.40	0.070374
584.30	0.071485
585.10	0.070076
586.00	0.071113
586.80	0.069624
587.70	0.069905
588.50	0.069858
589.40	0.069624
590.20	0.070592
591.10	0.070460
591.90	0.072057
592.80	0.074131
593.70	0.074770
594.50	0.075717
595.40	0.078942
596.20	0.081738
597.10	0.085388
597.90	0.088923
598.80	0.092257
599.60	0.096349
600.50	0.099388
601.30	0.10448
602.20	0.10827
603.00	0.11164
603.90	0.11513
604.70	0.11998
605.60	0.12328
606.50	0.12656
607.30	0.13095
608.20	0.13289
609.00	0.13379
609.90	0.13671
610.70	0.13844
611.60	0.13890
612.40	0.13954
613.30	0.14063
614.10	0.13996
615.00	0.14087
615.80	0.13907
616.70	0.13965
617.50	0.13887
618.40	0.13893
619.30	0.13583
620.10	0.13601
621.00	0.13422
621.80	0.13300
622.70	0.13121
623.50	0.12944
624.40	0.12616
625.20	0.12341
626.10	0.12098
626.90	0.11962
627.80	0.11684
628.60	0.11459
629.50	0.11196
630.30	0.11084
631.20	0.10714
632.10	0.10550
632.90	0.10341
633.80	0.10362
634.60	0.10248
635.50	0.10249
636.30	0.10180
637.20	0.10228
638.00	0.10478
638.90	0.10689
639.70	0.10864
640.60	0.11322
641.40	0.11797
642.30	0.12253
643.10	0.12797
644.00	0.13673
644.90	0.14572
645.70	0.15552
646.60	0.16810
647.40	0.18179
648.30	0.19703
649.10	0.21620
650.00	0.23695
650.80	0.26021
651.70	0.28511
652.50	0.31399
653.40	0.34467
654.20	0.37799
655.10	0.41207
655.90	0.44751
656.80	0.48447
657.70	0.52086
658.50	0.55700
659.40	0.58997
660.20	0.62114
661.10	0.64976
661.90	0.67271
662.80	0.69038
663.60	0.70108
664.50	0.70531
665.30	0.70219
666.20	0.69245
667.00	0.67561
667.90	0.64852
668.70	0.62051
669.60	0.58701
670.50	0.54712
671.30	0.50276
672.20	0.46448
673.00	0.42736
673.90	0.38974
674.70	0.34834
675.60	0.31101
676.40	0.27642
677.30	0.24196
678.10	0.21201
679.00	0.18582
679.80	0.16102
680.70	0.14016
681.50	0.12176
682.40	0.10470
683.30	0.092632
684.10	0.080602
685.00	0.071187
685.80	0.062320
686.70	0.056034
687.50	0.051303
688.40	0.045817
689.20	0.041800
690.10	0.038685
690.90	0.033849
691.80	0.033431
692.60	0.030474
693.50	0.028813
694.30	0.026387
695.20	0.023883
696.10	0.023568
696.90	0.021549
697.80	0.020644
698.60	0.017710
699.50	0.017823
700.30	0.017467
701.20	0.015359
702.00	0.015424
702.90	0.011678
703.70	0.014114
704.60	0.010280
705.40	0.010428
706.30	0.010795
707.10	0.0086644
708.00	0.0079707
708.90	0.0072313
709.70	0.0076089
710.60	0.0060080
711.40	0.0061443
712.30	0.0035372
713.10	0.0055488
714.00	0.0041194
714.80	0.0030166
715.70	0.0041567
716.50	0.0043009
717.40	0.0036043
718.20	0.0026145
719.10	0.0015837
719.90	0.0026609
720.80	0.0012413
721.70	0.0029902
722.50	0.0016945
723.40	0.0035636
724.20	0.0024359
725.10	0.0014964
725.90	0.0018641
726.80	0.00065146
727.60	0.0010739
728.50	0.0038703
729.30	0.0014978
730.20	0.00010945
731.00	0.0013309
731.90	0.0019725
732.70	0.00044513
733.60	0.0024253
734.50	0.0014115
735.30	0.00079703
736.20	0.0010498
737.00	0.0041731
737.90	0.0013059
738.70	0.0014579
739.60	0.00093916
