Wavelength (nm)	"214, J387, 19"
200.00	
201.00	
202.00	
203.00	
204.00	
205.00	
206.00	
207.00	
208.00	
209.00	
210.00	
211.00	
212.00	
213.00	
214.00	
215.00	0.99857
216.00	0.97509
217.00	0.93263
218.00	0.89770
219.00	0.87178
220.00	0.85878
221.00	0.85023
222.00	0.84621
223.00	0.84507
224.00	0.84732
225.00	0.85106
226.00	0.85810
227.00	0.86496
228.00	0.87173
229.00	0.87830
230.00	0.88407
231.00	0.88984
232.00	0.89341
233.00	0.89697
234.00	0.90003
235.00	0.90157
236.00	0.90311
237.00	0.90107
238.00	0.89904
239.00	0.89487
240.00	0.88810
241.00	0.87791
242.00	0.86595
243.00	0.85399
244.00	0.83673
245.00	0.81896
246.00	0.80118
247.00	0.78322
248.00	0.76489
249.00	0.74656
250.00	0.72824
251.00	0.70999
252.00	0.69253
253.00	0.67508
254.00	0.65762
255.00	0.64202
256.00	0.62815
257.00	0.61427
258.00	0.60295
259.00	0.59618
260.00	0.58941
261.00	0.58649
262.00	0.58406
263.00	0.58321
264.00	0.58641
265.00	0.58962
266.00	0.59424
267.00	0.60099
268.00	0.60774
269.00	0.61883
270.00	0.63029
271.00	0.64175
272.00	0.65631
273.00	0.67121
274.00	0.68611
275.00	0.70380
276.00	0.72186
277.00	0.73992
278.00	0.75900
279.00	0.77878
280.00	0.79856
281.00	0.81835
282.00	0.83955
283.00	0.86125
284.00	0.88295
285.00	0.90282
286.00	0.91862
287.00	0.93442
288.00	0.95022
289.00	0.96496
290.00	0.97753
291.00	0.98694
292.00	0.99366
293.00	0.99808
294.00	1.0000
295.00	0.99760
296.00	0.99334
297.00	0.98529
298.00	0.97374
299.00	0.95895
300.00	0.93559
301.00	0.91224
302.00	0.88611
303.00	0.85781
304.00	0.82951
305.00	0.79263
306.00	0.75528
307.00	0.71794
308.00	0.68082
309.00	0.64390
310.00	0.60698
311.00	0.57617
312.00	0.54596
313.00	0.51644
314.00	0.49053
315.00	0.46463
316.00	0.44129
317.00	0.42149
318.00	0.40168
319.00	0.38359
320.00	0.36817
321.00	0.35275
322.00	0.34136
323.00	0.33031
324.00	0.31926
325.00	0.30962
326.00	0.30082
327.00	0.29202
328.00	0.28322
329.00	0.27506
330.00	0.26799
331.00	0.26093
332.00	0.25387
333.00	0.24728
334.00	0.24112
335.00	0.23496
336.00	0.22880
337.00	0.22293
338.00	0.21750
339.00	0.21206
340.00	0.20663
341.00	0.20119
342.00	0.19644
343.00	0.19192
344.00	0.18740
345.00	0.18288
346.00	0.17836
347.00	0.17406
348.00	0.17041
349.00	0.16676
350.00	0.16312
351.00	0.15947
352.00	0.15584
353.00	0.15280
354.00	0.14977
355.00	0.14673
356.00	0.14369
357.00	0.14070
358.00	0.13811
359.00	0.13551
360.00	0.13292
361.00	0.13033
362.00	0.12774
363.00	0.12515
364.00	0.12295
365.00	0.12098
366.00	0.11901
367.00	0.11704
368.00	0.11513
369.00	0.11343
370.00	0.11172
371.00	0.11002
372.00	0.10831
373.00	0.10727
374.00	0.10634
375.00	0.10542
376.00	0.10450
377.00	0.10358
378.00	0.10278
379.00	0.10247
380.00	0.10215
381.00	0.10184
382.00	0.10152
383.00	0.10121
384.00	0.10124
385.00	0.10141
386.00	0.10158
387.00	0.10176
388.00	0.10193
389.00	0.10210
390.00	0.10227
391.00	0.10283
392.00	0.10340
393.00	0.10397
394.00	0.10454
395.00	0.10511
396.00	0.10568
397.00	0.10625
398.00	0.10682
399.00	0.10805
400.00	0.10937
401.00	0.11069
402.00	0.11201
403.00	0.11333
404.00	0.11465
405.00	0.11597
406.00	0.11763
407.00	0.11932
408.00	0.12102
409.00	0.12271
410.00	0.12441
411.00	0.12610
412.00	0.12780
413.00	0.12952
414.00	0.13165
415.00	0.13378
416.00	0.13591
417.00	0.13805
418.00	0.14018
419.00	0.14231
420.00	0.14444
421.00	0.14657
422.00	0.14871
423.00	0.15098
424.00	0.15335
425.00	0.15573
426.00	0.15810
427.00	0.16047
428.00	0.16285
429.00	0.16522
430.00	0.16759
431.00	0.16997
432.00	0.17233
433.00	0.17464
434.00	0.17695
435.00	0.17926
436.00	0.18157
437.00	0.18388
438.00	0.18619
439.00	0.18849
440.00	0.19080
441.00	0.19311
442.00	0.19537
443.00	0.19755
444.00	0.19972
445.00	0.20190
446.00	0.20407
447.00	0.20624
448.00	0.20842
449.00	0.21059
450.00	0.21277
451.00	0.21494
452.00	0.21711
453.00	0.21929
454.00	0.22136
455.00	0.22329
456.00	0.22522
457.00	0.22715
458.00	0.22909
459.00	0.23102
460.00	0.23295
461.00	0.23488
462.00	0.23681
463.00	0.23874
464.00	0.24058
465.00	0.24217
466.00	0.24375
467.00	0.24534
468.00	0.24693
469.00	0.24851
470.00	0.25007
471.00	0.25127
472.00	0.25247
473.00	0.25367
474.00	0.25487
475.00	0.25607
476.00	0.25718
477.00	0.25809
478.00	0.25900
479.00	0.25990
480.00	0.26081
481.00	0.26172
482.00	0.26262
483.00	0.26345
484.00	0.26410
485.00	0.26474
486.00	0.26539
487.00	0.26603
488.00	0.26668
489.00	0.26732
490.00	0.26790
491.00	0.26812
492.00	0.26834
493.00	0.26856
494.00	0.26879
495.00	0.26901
496.00	0.26873
497.00	0.26842
498.00	0.26811
499.00	0.26780
500.00	0.26749
501.00	0.26711
502.00	0.26659
503.00	0.26606
504.00	0.26554
505.00	0.26501
506.00	0.26449
507.00	0.26357
508.00	0.26257
509.00	0.26157
510.00	0.26057
511.00	0.25957
512.00	0.25853
513.00	0.25681
514.00	0.25509
515.00	0.25337
516.00	0.25165
517.00	0.24993
518.00	0.24820
519.00	0.24605
520.00	0.24391
521.00	0.24176
522.00	0.23961
523.00	0.23747
524.00	0.23532
525.00	0.23279
526.00	0.22995
527.00	0.22712
528.00	0.22429
529.00	0.22146
530.00	0.21862
531.00	0.21557
532.00	0.21240
533.00	0.20923
534.00	0.20605
535.00	0.20288
536.00	0.19971
537.00	0.19654
538.00	0.19300
539.00	0.18943
540.00	0.18585
541.00	0.18228
542.00	0.17871
543.00	0.17514
544.00	0.17156
545.00	0.16795
546.00	0.16431
547.00	0.16068
548.00	0.15704
549.00	0.15341
550.00	0.14977
551.00	0.14614
552.00	0.14243
553.00	0.13866
554.00	0.13488
555.00	0.13111
556.00	0.12734
557.00	0.12357
558.00	0.11979
559.00	0.11623
560.00	0.11273
561.00	0.10923
562.00	0.10573
563.00	0.10223
564.00	0.098724
565.00	0.095200
566.00	0.091588
567.00	0.087977
568.00	0.084366
569.00	0.080754
570.00	0.077143
571.00	0.073532
572.00	0.070072
573.00	0.066919
574.00	0.063766
575.00	0.060613
576.00	0.057460
577.00	0.054307
578.00	0.051529
579.00	0.048821
580.00	0.046114
581.00	0.043406
582.00	0.040699
583.00	0.037992
584.00	0.035780
585.00	0.033824
586.00	0.031868
587.00	0.029912
588.00	0.027956
589.00	0.026000
590.00	0.024369
591.00	0.022841
592.00	0.021313
593.00	0.019785
594.00	0.018256
595.00	0.016728
596.00	0.015602
597.00	0.014634
598.00	0.013665
599.00	0.012696
600.00	0.011727
601.00	0.010780
602.00	0.0098712
603.00	0.0089626
604.00	0.0080540
605.00	0.0071453
606.00	0.0063404
607.00	0.0058022
608.00	0.0052639
609.00	0.0047257
610.00	0.0041875
611.00	0.0036493
612.00	0.0033482
613.00	0.0030678
614.00	0.0027874
615.00	0.0025069
616.00	0.0022265
617.00	0.0019461
618.00	0.0016657
619.00	0.0013852
620.00	0.0012713
621.00	0.0012322
622.00	0.0011931
623.00	0.0011540
624.00	0.0011149
625.00	0.0010758
626.00	0.0010367
627.00	0.00099760
628.00	0.00095850
629.00	0.00091940
630.00	0.00088029
631.00	0.00084119
632.00	0.00080209
633.00	0.00079896
634.00	0.00079896
635.00	0.00079896
636.00	0.00079896
637.00	0.00079896
638.00	0.00079896
639.00	0.00079896
640.00	0.00079896
641.00	0.00079896
642.00	0.00079896
643.00	0.00079896
644.00	0.00079896
645.00	0.00079896
646.00	0.00079896
647.00	0.00079896
648.00	0.00079896
649.00	0.00079896
650.00	0.00079896
651.00	
652.00	
653.00	
654.00	
655.00	
656.00	
657.00	
658.00	
659.00	
660.00	
661.00	
662.00	
663.00	
664.00	
665.00	
666.00	
667.00	
668.00	
669.00	
670.00	
671.00	
672.00	
673.00	
674.00	
675.00	
676.00	
677.00	
678.00	
679.00	
680.00	
681.00	
682.00	
683.00	
684.00	
685.00	
686.00	
687.00	
688.00	
689.00	
690.00	
691.00	
692.00	
693.00	
694.00	
695.00	
696.00	
697.00	
698.00	
699.00	
700.00	
701.00	
702.00	
703.00	
704.00	
705.00	
706.00	
707.00	
708.00	
709.00	
710.00	
711.00	
712.00	
713.00	
714.00	
715.00	
716.00	
717.00	
718.00	
719.00	
720.00	
721.00	
722.00	
723.00	
724.00	
725.00	
726.00	
727.00	
728.00	
729.00	
730.00	
731.00	
732.00	
733.00	
734.00	
735.00	
736.00	
737.00	
738.00	
739.00	
740.00	
741.00	
742.00	
743.00	
744.00	
745.00	
746.00	
747.00	
748.00	
749.00	
750.00	
751.00	
752.00	
753.00	
754.00	
755.00	
756.00	
757.00	
758.00	
759.00	
760.00	
761.00	
762.00	
763.00	
764.00	
765.00	
766.00	
767.00	
768.00	
769.00	
770.00	
771.00	
772.00	
773.00	
774.00	
775.00	
776.00	
777.00	
778.00	
779.00	
780.00	
781.00	
782.00	
783.00	
784.00	
785.00	
786.00	
787.00	
788.00	
789.00	
790.00	
791.00	
792.00	
793.00	
794.00	
795.00	
796.00	
797.00	
798.00	
799.00	
800.00	
801.00	
802.00	
803.00	
804.00	
805.00	
806.00	
807.00	
808.00	
809.00	
810.00	
811.00	
812.00	
813.00	
814.00	
815.00	
816.00	
817.00	
818.00	
819.00	
820.00	
821.00	
822.00	
823.00	
824.00	
825.00	
826.00	
827.00	
828.00	
829.00	
830.00	
831.00	
832.00	
833.00	
834.00	
835.00	
836.00	
837.00	
838.00	
839.00	
840.00	
841.00	
842.00	
843.00	
844.00	
845.00	
846.00	
847.00	
848.00	
849.00	
850.00	
851.00	
852.00	
853.00	
854.00	
855.00	
856.00	
857.00	
858.00	
859.00	
860.00	
861.00	
862.00	
863.00	
864.00	
865.00	
866.00	
867.00	
868.00	
869.00	
870.00	
871.00	
872.00	
873.00	
874.00	
875.00	
876.00	
877.00	
878.00	
879.00	
880.00	
881.00	
882.00	
883.00	
884.00	
885.00	
886.00	
887.00	
888.00	
889.00	
890.00	
891.00	
892.00	
893.00	
894.00	
895.00	
896.00	
897.00	
898.00	
899.00	
900.00	
901.00	
902.00	
903.00	
904.00	
905.00	
906.00	
907.00	
908.00	
909.00	
910.00	
911.00	
912.00	
913.00	
914.00	
915.00	
916.00	
917.00	
918.00	
919.00	
920.00	
921.00	
922.00	
923.00	
924.00	
925.00	
926.00	
927.00	
928.00	
929.00	
930.00	
931.00	
932.00	
933.00	
934.00	
935.00	
936.00	
937.00	
938.00	
939.00	
940.00	
941.00	
942.00	
943.00	
944.00	
945.00	
946.00	
947.00	
948.00	
949.00	
950.00	
951.00	
952.00	
953.00	
954.00	
955.00	
956.00	
957.00	
958.00	
959.00	
960.00	
961.00	
962.00	
963.00	
964.00	
965.00	
966.00	
967.00	
968.00	
969.00	
970.00	
971.00	
972.00	
973.00	
974.00	
975.00	
976.00	
977.00	
978.00	
979.00	
980.00	
981.00	
982.00	
983.00	
984.00	
985.00	
986.00	
987.00	
988.00	
989.00	
990.00	
991.00	
992.00	
993.00	
994.00	
995.00	
996.00	
997.00	
998.00	
999.00	
1000.0	
1001.0	
1002.0	
1003.0	
1004.0	
1005.0	
1006.0	
1007.0	
1008.0	
1009.0	
1010.0	
1011.0	
1012.0	
1013.0	
1014.0	
1015.0	
1016.0	
1017.0	
1018.0	
1019.0	
1020.0	
1021.0	
1022.0	
1023.0	
1024.0	
1025.0	
1026.0	
1027.0	
1028.0	
1029.0	
1030.0	
1031.0	
1032.0	
1033.0	
1034.0	
1035.0	
1036.0	
1037.0	
1038.0	
1039.0	
1040.0	
1041.0	
1042.0	
1043.0	
1044.0	
1045.0	
1046.0	
1047.0	
1048.0	
1049.0	
1050.0	
1051.0	
1052.0	
1053.0	
1054.0	
1055.0	
1056.0	
1057.0	
1058.0	
1059.0	
1060.0	
1061.0	
1062.0	
1063.0	
1064.0	
1065.0	
1066.0	
1067.0	
1068.0	
1069.0	
1070.0	
1071.0	
1072.0	
1073.0	
1074.0	
1075.0	
1076.0	
1077.0	
1078.0	
1079.0	
1080.0	
1081.0	
1082.0	
1083.0	
1084.0	
1085.0	
1086.0	
1087.0	
1088.0	
1089.0	
1090.0	
1091.0	
1092.0	
1093.0	
1094.0	
1095.0	
1096.0	
1097.0	
1098.0	
1099.0	
1100.0	
1101.0	
1102.0	
1103.0	
1104.0	
1105.0	
1106.0	
1107.0	
1108.0	
1109.0	
1110.0	
1111.0	
1112.0	
1113.0	
1114.0	
1115.0	
1116.0	
1117.0	
1118.0	
1119.0	
1120.0	
1121.0	
1122.0	
1123.0	
1124.0	
1125.0	
1126.0	
1127.0	
1128.0	
1129.0	
1130.0	
1131.0	
1132.0	
1133.0	
1134.0	
1135.0	
1136.0	
1137.0	
1138.0	
1139.0	
1140.0	
1141.0	
1142.0	
1143.0	
1144.0	
1145.0	
1146.0	
1147.0	
1148.0	
1149.0	
1150.0	
1151.0	
1152.0	
1153.0	
1154.0	
1155.0	
1156.0	
1157.0	
1158.0	
1159.0	
1160.0	
1161.0	
1162.0	
1163.0	
1164.0	
1165.0	
1166.0	
1167.0	
1168.0	
1169.0	
1170.0	
1171.0	
1172.0	
1173.0	
1174.0	
1175.0	
1176.0	
1177.0	
1178.0	
1179.0	
1180.0	
1181.0	
1182.0	
1183.0	
1184.0	
1185.0	
1186.0	
1187.0	
1188.0	
1189.0	
1190.0	
1191.0	
1192.0	
1193.0	
1194.0	
1195.0	
1196.0	
1197.0	
1198.0	
1199.0	
1200.0	
