Wavelength (nm)	Dalton 2015_10116, Pd-3 abs [Z]
280.00	0.52524
281.00	0.50108
282.00	0.48501
283.00	0.47965
284.00	0.47428
285.00	0.47218
286.00	0.47086
287.00	0.47180
288.00	0.47385
289.00	0.47657
290.00	0.48042
291.00	0.48426
292.00	0.48926
293.00	0.49587
294.00	0.50248
295.00	0.51018
296.00	0.51854
297.00	0.52690
298.00	0.53657
299.00	0.54869
300.00	0.56080
301.00	0.57359
302.00	0.58865
303.00	0.60371
304.00	0.61938
305.00	0.63665
306.00	0.65391
307.00	0.67118
308.00	0.68845
309.00	0.70635
310.00	0.72426
311.00	0.74216
312.00	0.76006
313.00	0.77797
314.00	0.79587
315.00	0.81349
316.00	0.83037
317.00	0.84726
318.00	0.86414
319.00	0.88103
320.00	0.89619
321.00	0.91058
322.00	0.92496
323.00	0.93825
324.00	0.95024
325.00	0.95756
326.00	0.96488
327.00	0.96962
328.00	0.97426
329.00	0.97890
330.00	0.98321
331.00	0.98607
332.00	0.98862
333.00	0.98494
334.00	0.97951
335.00	0.96906
336.00	0.96066
337.00	0.95145
338.00	0.94035
339.00	0.92926
340.00	0.91346
341.00	0.89671
342.00	0.87995
343.00	0.86207
344.00	0.84019
345.00	0.81831
346.00	0.79650
347.00	0.77525
348.00	0.75400
349.00	0.73275
350.00	0.71190
351.00	0.69188
352.00	0.67187
353.00	0.65398
354.00	0.63696
355.00	0.61994
356.00	0.60332
357.00	0.59023
358.00	0.57714
359.00	0.56462
360.00	0.55558
361.00	0.54655
362.00	0.53752
363.00	0.53047
364.00	0.52520
365.00	0.51992
366.00	0.51464
367.00	0.51105
368.00	0.50863
369.00	0.50621
370.00	0.50379
371.00	0.50196
372.00	0.50074
373.00	0.49952
374.00	0.49830
375.00	0.49658
376.00	0.49319
377.00	0.48981
378.00	0.48578
379.00	0.48092
380.00	0.47607
381.00	0.46253
382.00	0.44695
383.00	0.43144
384.00	0.41926
385.00	0.40709
386.00	0.39492
387.00	0.38274
388.00	0.36829
389.00	0.35307
390.00	0.33786
391.00	0.32265
392.00	0.30848
393.00	0.29488
394.00	0.28128
395.00	0.26815
396.00	0.25680
397.00	0.24544
398.00	0.23456
399.00	0.22853
400.00	0.22251
401.00	0.21648
402.00	0.21157
403.00	0.20729
404.00	0.20301
405.00	0.19873
406.00	0.19445
407.00	0.19017
408.00	0.18702
409.00	0.18400
410.00	0.18099
411.00	0.17797
412.00	0.17495
413.00	0.17193
414.00	0.16892
415.00	0.16714
416.00	0.16536
417.00	0.16358
418.00	0.16180
419.00	0.16002
420.00	0.15823
421.00	0.15645
422.00	0.15467
423.00	0.15289
424.00	0.15111
425.00	0.14980
426.00	0.14872
427.00	0.14763
428.00	0.14655
429.00	0.14547
430.00	0.14439
431.00	0.14331
432.00	0.14223
433.00	0.14115
434.00	0.13995
435.00	0.13862
436.00	0.13730
437.00	0.13597
438.00	0.13464
439.00	0.13331
440.00	0.13198
441.00	0.13066
442.00	0.12933
443.00	0.12800
444.00	0.12667
445.00	0.12550
446.00	0.12437
447.00	0.12324
448.00	0.12211
449.00	0.12097
450.00	0.11984
451.00	0.11871
452.00	0.11758
453.00	0.11645
454.00	0.11531
455.00	0.11418
456.00	0.11305
457.00	0.11192
458.00	0.11079
459.00	0.10983
460.00	0.10887
461.00	0.10791
462.00	0.10695
463.00	0.10599
464.00	0.10503
465.00	0.10407
466.00	0.10340
467.00	0.10290
468.00	0.10240
469.00	0.10190
470.00	0.10139
471.00	0.10089
472.00	0.10042
473.00	0.10035
474.00	0.10028
475.00	0.10021
476.00	0.10013
477.00	0.10006
478.00	0.099989
479.00	0.10013
480.00	0.10046
481.00	0.10079
482.00	0.10112
483.00	0.10146
484.00	0.10179
485.00	0.10212
486.00	0.10245
487.00	0.10279
488.00	0.10333
489.00	0.10388
490.00	0.10442
491.00	0.10497
492.00	0.10552
493.00	0.10606
494.00	0.10661
495.00	0.10715
496.00	0.10770
497.00	0.10850
498.00	0.10958
499.00	0.11066
500.00	0.11173
501.00	0.11281
502.00	0.11389
503.00	0.11497
504.00	0.11624
505.00	0.11752
506.00	0.11881
507.00	0.12010
508.00	0.12138
509.00	0.12267
510.00	0.12396
511.00	0.12527
512.00	0.12667
513.00	0.12808
514.00	0.12949
515.00	0.13090
516.00	0.13230
517.00	0.13371
518.00	0.13528
519.00	0.13787
520.00	0.14045
521.00	0.14304
522.00	0.14563
523.00	0.14821
524.00	0.15080
525.00	0.15338
526.00	0.15605
527.00	0.15950
528.00	0.16294
529.00	0.16638
530.00	0.16982
531.00	0.17326
532.00	0.17670
533.00	0.18027
534.00	0.18407
535.00	0.18787
536.00	0.19166
537.00	0.19546
538.00	0.19926
539.00	0.20305
540.00	0.20684
541.00	0.21057
542.00	0.21430
543.00	0.21803
544.00	0.22176
545.00	0.22549
546.00	0.22922
547.00	0.23295
548.00	0.23607
549.00	0.23915
550.00	0.24222
551.00	0.24530
552.00	0.24838
553.00	0.25145
554.00	0.25453
555.00	0.25800
556.00	0.26163
557.00	0.26526
558.00	0.26889
559.00	0.27252
560.00	0.27615
561.00	0.27978
562.00	0.28381
563.00	0.28996
564.00	0.29611
565.00	0.30226
566.00	0.30841
567.00	0.31456
568.00	0.32090
569.00	0.32912
570.00	0.33733
571.00	0.34555
572.00	0.35377
573.00	0.36199
574.00	0.37117
575.00	0.38222
576.00	0.39327
577.00	0.40433
578.00	0.41538
579.00	0.42643
580.00	0.43726
581.00	0.44780
582.00	0.45835
583.00	0.46889
584.00	0.47943
585.00	0.48992
586.00	0.50036
587.00	0.51080
588.00	0.52085
589.00	0.52570
590.00	0.53055
591.00	0.53540
592.00	0.53880
593.00	0.54212
594.00	0.54382
595.00	0.54517
596.00	0.54576
597.00	0.54500
598.00	0.54424
599.00	0.54321
600.00	0.54129
601.00	0.53937
602.00	0.53745
603.00	0.53510
604.00	0.53263
605.00	0.53016
606.00	0.52823
607.00	0.52731
608.00	0.52640
609.00	0.52548
610.00	0.52621
611.00	0.52751
612.00	0.52882
613.00	0.53052
614.00	0.53483
615.00	0.53914
616.00	0.54345
617.00	0.55269
618.00	0.56287
619.00	0.57305
620.00	0.58323
621.00	0.59342
622.00	0.61000
623.00	0.62714
624.00	0.64429
625.00	0.66143
626.00	0.67857
627.00	0.69572
628.00	0.71443
629.00	0.73594
630.00	0.75746
631.00	0.77897
632.00	0.80048
633.00	0.82199
634.00	0.84336
635.00	0.86470
636.00	0.88603
637.00	0.90681
638.00	0.92485
639.00	0.94289
640.00	0.95970
641.00	0.97187
642.00	0.98405
643.00	0.99409
644.00	0.99794
645.00	1.0000
646.00	0.99699
647.00	0.99309
648.00	0.98447
649.00	0.97035
650.00	0.95353
651.00	0.93422
652.00	0.91492
653.00	0.89316
654.00	0.86402
655.00	0.83489
656.00	0.80459
657.00	0.77292
658.00	0.74124
659.00	0.70987
660.00	0.67863
661.00	0.64740
662.00	0.61617
663.00	0.58223
664.00	0.54626
665.00	0.51029
666.00	0.47432
667.00	0.44571
668.00	0.41894
669.00	0.39218
670.00	0.36541
671.00	0.33864
672.00	0.31198
673.00	0.28547
674.00	0.25897
675.00	0.23246
676.00	0.20955
677.00	0.19120
678.00	0.17285
679.00	0.15450
680.00	0.13927
681.00	0.12716
682.00	0.11506
683.00	0.10369
684.00	0.094922
685.00	0.086153
686.00	0.077384
687.00	0.070308
688.00	0.064315
689.00	0.058322
690.00	0.052329
691.00	0.047134
692.00	0.042708
693.00	0.038282
694.00	0.033855
695.00	0.029912
696.00	0.027498
697.00	0.025085
698.00	0.022672
699.00	0.020258
700.00	0.017845
701.00	0.015630
702.00	0.014385
703.00	0.013139
704.00	0.011894
705.00	0.010648
706.00	0.0094026
707.00	0.0082436
708.00	0.0078638
709.00	0.0074840
710.00	0.0071042
711.00	0.0067244
712.00	0.0063446
713.00	0.0059648
714.00	0.0055850
715.00	0.0052052
716.00	0.0050348
717.00	0.0048878
718.00	0.0047407
719.00	0.0045937
720.00	0.0044466
721.00	0.0042995
722.00	0.0041525
723.00	0.0040054
724.00	0.0038583
725.00	0.0037113
726.00	0.0035642
727.00	0.0034172
728.00	0.0032701
729.00	0.0031230
730.00	0.0029760
731.00	0.0028818
732.00	0.0027899
733.00	0.0026980
734.00	0.0026061
735.00	0.0025141
736.00	0.0024222
737.00	0.0023303
738.00	0.0022384
739.00	0.0021464
740.00	0.0020545
741.00	0.0019660
742.00	0.0018775
743.00	0.0017890
744.00	0.0017005
745.00	0.0016120
746.00	0.0015235
747.00	0.0014350
748.00	0.0013465
749.00	0.0012580
750.00	0.0011931
751.00	0.0011921
752.00	0.0011911
753.00	0.0011901
754.00	0.0011891
755.00	0.0011881
756.00	0.0011871
757.00	0.0011861
758.00	0.0011851
759.00	0.0011841
760.00	0.0011831
761.00	0.0011821
762.00	0.0011811
763.00	0.0011811
764.00	0.0011811
765.00	0.0011811
766.00	0.0011811
767.00	0.0011811
768.00	0.0011811
769.00	0.0011811
770.00	0.0011811
771.00	0.0011811
772.00	0.0011811
773.00	0.0011811
774.00	0.0011811
775.00	0.0011811
776.00	0.0011811
777.00	0.0011811
778.00	0.0011811
779.00	0.0011811
780.00	0.0011811
781.00	0.0011811
782.00	0.0011811
783.00	0.0011811
784.00	0.0011811
785.00	0.0011811
786.00	0.0011811
787.00	0.0011811
788.00	0.0011811
789.00	0.0011811
790.00	0.0011811
791.00	0.0011811
792.00	0.0011811
793.00	0.0011811
794.00	0.0011811
795.00	0.0011811
796.00	0.0011811
797.00	0.0011811
798.00	0.0011811
799.00	0.0011811
800.00	0.0011811
