Wavelength (nm)	MesoP IX (0.1 M PPB).abs
300.00	0.18309
301.00	0.18569
302.00	0.18902
303.00	0.19423
304.00	0.19884
305.00	0.20258
306.00	0.20767
307.00	0.21340
308.00	0.21635
309.00	0.22374
310.00	0.23009
311.00	0.23647
312.00	0.24234
313.00	0.24881
314.00	0.25725
315.00	0.26516
316.00	0.27421
317.00	0.28345
318.00	0.29374
319.00	0.30135
320.00	0.31116
321.00	0.32282
322.00	0.33483
323.00	0.34713
324.00	0.35733
325.00	0.37007
326.00	0.38147
327.00	0.39464
328.00	0.40738
329.00	0.41984
330.00	0.43495
331.00	0.44835
332.00	0.46199
333.00	0.47770
334.00	0.49213
335.00	0.50796
336.00	0.52271
337.00	0.53909
338.00	0.55526
339.00	0.57132
340.00	0.58745
341.00	0.60251
342.00	0.61977
343.00	0.63480
344.00	0.64920
345.00	0.66503
346.00	0.67918
347.00	0.69306
348.00	0.70600
349.00	0.71838
350.00	0.72980
351.00	0.74199
352.00	0.75465
353.00	0.76350
354.00	0.77425
355.00	0.78565
356.00	0.79630
357.00	0.80710
358.00	0.81634
359.00	0.82627
360.00	0.83528
361.00	0.84655
362.00	0.85581
363.00	0.86479
364.00	0.87402
365.00	0.88338
366.00	0.89102
367.00	0.89864
368.00	0.90808
369.00	0.91476
370.00	0.92097
371.00	0.92724
372.00	0.93055
373.00	0.93352
374.00	0.93573
375.00	0.93444
376.00	0.93921
377.00	0.93929
378.00	0.94245
379.00	0.94508
380.00	0.94720
381.00	0.95503
382.00	0.96118
383.00	0.96566
384.00	0.97325
385.00	0.97978
386.00	0.98565
387.00	0.99189
388.00	0.99650
389.00	0.99865
390.00	1.0000
391.00	0.99736
392.00	0.99140
393.00	0.97987
394.00	0.96412
395.00	0.94594
396.00	0.92388
397.00	0.89671
398.00	0.86750
399.00	0.83682
400.00	0.80636
401.00	0.77336
402.00	0.73946
403.00	0.70877
404.00	0.67937
405.00	0.65250
406.00	0.62770
407.00	0.60575
408.00	0.58497
409.00	0.56475
410.00	0.54650
411.00	0.53214
412.00	0.51723
413.00	0.50318
414.00	0.49132
415.00	0.48137
416.00	0.47076
417.00	0.45914
418.00	0.44879
419.00	0.44152
420.00	0.43378
421.00	0.42681
422.00	0.41996
423.00	0.41190
424.00	0.40665
425.00	0.40152
426.00	0.39607
427.00	0.39133
428.00	0.38526
429.00	0.37919
430.00	0.37402
431.00	0.37010
432.00	0.36725
433.00	0.36408
434.00	0.35647
435.00	0.35376
436.00	0.34978
437.00	0.34449
438.00	0.33997
439.00	0.33470
440.00	0.33098
441.00	0.32599
442.00	0.32059
443.00	0.31698
444.00	0.31040
445.00	0.30879
446.00	0.30243
447.00	0.29571
448.00	0.29088
449.00	0.28708
450.00	0.28077
451.00	0.27586
452.00	0.27120
453.00	0.26550
454.00	0.26069
455.00	0.25493
456.00	0.24681
457.00	0.24194
458.00	0.23614
459.00	0.23000
460.00	0.22373
461.00	0.21914
462.00	0.21302
463.00	0.20535
464.00	0.19877
465.00	0.19161
466.00	0.18719
467.00	0.18039
468.00	0.17547
469.00	0.16847
470.00	0.16262
471.00	0.15439
472.00	0.14651
473.00	0.13963
474.00	0.13605
475.00	0.13094
476.00	0.12423
477.00	0.12176
478.00	0.11349
479.00	0.11094
480.00	0.10884
481.00	0.10473
482.00	0.10462
483.00	0.10140
484.00	0.099659
485.00	0.096536
486.00	0.094924
487.00	0.10175
488.00	0.10544
489.00	0.10253
490.00	0.10415
491.00	0.10808
492.00	0.11024
493.00	0.11244
494.00	0.11505
495.00	0.11830
496.00	0.12257
497.00	0.12520
498.00	0.12845
499.00	0.12953
500.00	0.13226
501.00	0.13294
502.00	0.13627
503.00	0.13874
504.00	0.14065
505.00	0.14026
506.00	0.14018
507.00	0.14211
508.00	0.14127
509.00	0.14032
510.00	0.13992
511.00	0.13829
512.00	0.13852
513.00	0.14003
514.00	0.13866
515.00	0.13827
516.00	0.13940
517.00	0.13867
518.00	0.13651
519.00	0.13575
520.00	0.13366
521.00	0.13171
522.00	0.12852
523.00	0.12675
524.00	0.12270
525.00	0.11957
526.00	0.11561
527.00	0.11165
528.00	0.10996
529.00	0.10740
530.00	0.10539
531.00	0.10497
532.00	0.10546
533.00	0.10415
534.00	0.10301
535.00	0.10331
536.00	0.10421
537.00	0.10234
538.00	0.10196
539.00	0.099331
540.00	0.096851
541.00	0.093564
542.00	0.093022
543.00	0.090529
544.00	0.086235
545.00	0.085227
546.00	0.083703
547.00	0.081890
548.00	0.079812
549.00	0.076412
550.00	0.076047
551.00	0.075354
552.00	0.073150
553.00	0.069990
554.00	0.067521
555.00	0.064839
556.00	0.063265
557.00	0.061414
558.00	0.060129
559.00	0.057485
560.00	0.056024
561.00	0.055633
562.00	0.055256
563.00	0.055092
564.00	0.057057
565.00	0.057119
566.00	0.058291
567.00	0.061917
568.00	0.063844
569.00	0.067307
570.00	0.069738
571.00	0.072005
572.00	0.072420
573.00	0.073629
574.00	0.073100
575.00	0.073188
576.00	0.072999
577.00	0.070254
578.00	0.069259
579.00	0.070204
580.00	0.067421
581.00	0.063869
582.00	0.061250
583.00	0.062497
584.00	0.059008
585.00	0.054009
586.00	0.050684
587.00	0.047964
588.00	0.043343
589.00	0.042033
590.00	0.039099
591.00	0.035749
592.00	0.034099
593.00	0.029975
594.00	0.030741
595.00	0.029922
596.00	0.029526
597.00	0.029235
598.00	0.028839
599.00	0.027413
600.00	0.028496
601.00	0.028390
602.00	0.028443
603.00	0.027836
604.00	0.026938
605.00	0.027387
606.00	0.026779
607.00	0.026489
608.00	0.025036
609.00	0.025036
610.00	0.024667
611.00	0.024218
612.00	0.023980
613.00	0.024033
614.00	0.023108
615.00	0.023769
616.00	0.024587
617.00	0.024878
618.00	0.024851
619.00	0.027704
620.00	0.027334
621.00	0.029711
622.00	0.033016
623.00	0.036139
624.00	0.038960
625.00	0.041013
626.00	0.043229
627.00	0.044489
628.00	0.043040
629.00	0.042700
630.00	0.040005
631.00	0.036882
632.00	0.033369
633.00	0.029394
634.00	0.026674
635.00	0.023425
636.00	0.019781
637.00	0.019094
638.00	0.015661
639.00	0.013363
640.00	0.012518
641.00	0.011066
642.00	0.0087944
643.00	0.0093754
644.00	0.0074528
645.00	0.0085039
646.00	0.0094282
647.00	0.0083454
648.00	0.0080285
649.00	0.0058656
650.00	0.0053493
651.00	0.0059158
652.00	0.0055257
653.00	0.0043787
654.00	0.0047062
655.00	0.0040415
656.00	0.0034438
657.00	0.0034626
658.00	0.0031692
659.00	0.0057784
660.00	0.0042784
661.00	0.0045821
662.00	0.0044051
663.00	0.0043180
664.00	0.0036868
665.00	0.0030186
666.00	0.0034200
667.00	0.0041410
668.00	0.0029447
669.00	0.0033461
670.00	0.0030081
671.00	0.0030186
672.00	0.0024297
673.00	0.0035732
674.00	0.0030450
675.00	0.0025881
676.00	0.0024561
677.00	0.0017959
678.00	0.0034359
679.00	0.0023505
680.00	0.0024033
681.00	0.0027175
682.00	0.0021392
683.00	0.0022976
684.00	0.0023769
685.00	0.0024033
686.00	0.0028945
687.00	0.0016902
688.00	0.0015582
689.00	0.0015318
690.00	0.0012413
691.00	0.0022712
692.00	0.00095075
693.00	0.0016638
694.00	0.00073947
695.00	0.0020071
696.00	0.0019807
697.00	0.0018751
698.00	0.0020335
699.00	0.0015846
700.00	0.0018487
