Wavelength (nm)	"206, JACS 1989_7607, 4"
200.00	
201.00	
202.00	
203.00	
204.00	
205.00	
206.00	
207.00	
208.00	
209.00	
210.00	0.93067
211.00	0.90979
212.00	0.88938
213.00	0.87514
214.00	0.86089
215.00	0.85355
216.00	0.84862
217.00	0.84370
218.00	0.83992
219.00	0.84380
220.00	0.84768
221.00	0.85410
222.00	0.86467
223.00	0.87616
224.00	0.89038
225.00	0.90460
226.00	0.91837
227.00	0.93168
228.00	0.94499
229.00	0.95631
230.00	0.96693
231.00	0.97265
232.00	0.97537
233.00	0.97808
234.00	0.97372
235.00	0.96712
236.00	0.95671
237.00	0.94142
238.00	0.92424
239.00	0.89981
240.00	0.87454
241.00	0.84618
242.00	0.81829
243.00	0.79173
244.00	0.76613
245.00	0.74638
246.00	0.72663
247.00	0.71200
248.00	0.69834
249.00	0.68484
250.00	0.67949
251.00	0.67414
252.00	0.66879
253.00	0.66344
254.00	0.66035
255.00	0.65882
256.00	0.65729
257.00	0.65576
258.00	0.65479
259.00	0.65405
260.00	0.65340
261.00	0.65439
262.00	0.65537
263.00	0.65631
264.00	0.65631
265.00	0.65490
266.00	0.64988
267.00	0.64385
268.00	0.63662
269.00	0.62735
270.00	0.61807
271.00	0.60828
272.00	0.59847
273.00	0.58740
274.00	0.56913
275.00	0.55087
276.00	0.53260
277.00	0.51114
278.00	0.48955
279.00	0.46630
280.00	0.44133
281.00	0.41637
282.00	0.39598
283.00	0.37646
284.00	0.35907
285.00	0.34546
286.00	0.33186
287.00	0.32113
288.00	0.31297
289.00	0.30563
290.00	0.30101
291.00	0.29639
292.00	0.29177
293.00	0.28771
294.00	0.28644
295.00	0.28517
296.00	0.28390
297.00	0.28338
298.00	0.28478
299.00	0.28617
300.00	0.28757
301.00	0.28896
302.00	0.29092
303.00	0.29400
304.00	0.29708
305.00	0.30016
306.00	0.30324
307.00	0.30696
308.00	0.31325
309.00	0.31954
310.00	0.32583
311.00	0.33212
312.00	0.34078
313.00	0.34954
314.00	0.35819
315.00	0.36671
316.00	0.37522
317.00	0.38374
318.00	0.39643
319.00	0.41036
320.00	0.42429
321.00	0.43973
322.00	0.45627
323.00	0.47280
324.00	0.48934
325.00	0.50691
326.00	0.52994
327.00	0.55296
328.00	0.57598
329.00	0.59900
330.00	0.62433
331.00	0.65140
332.00	0.67846
333.00	0.70553
334.00	0.73260
335.00	0.76036
336.00	0.78831
337.00	0.81626
338.00	0.84381
339.00	0.86674
340.00	0.88967
341.00	0.91260
342.00	0.93178
343.00	0.94949
344.00	0.96721
345.00	0.97994
346.00	0.99063
347.00	0.99610
348.00	1.0000
349.00	0.99581
350.00	0.99162
351.00	0.98002
352.00	0.96334
353.00	0.94207
354.00	0.91645
355.00	0.88682
356.00	0.85509
357.00	0.81590
358.00	0.77672
359.00	0.73128
360.00	0.68376
361.00	0.63641
362.00	0.59084
363.00	0.54528
364.00	0.49972
365.00	0.45552
366.00	0.41648
367.00	0.37743
368.00	0.33912
369.00	0.30371
370.00	0.26830
371.00	0.23848
372.00	0.21324
373.00	0.18799
374.00	0.16900
375.00	0.15079
376.00	0.13297
377.00	0.12022
378.00	0.10748
379.00	0.098465
380.00	0.092049
381.00	0.085633
382.00	0.079352
383.00	0.075625
384.00	0.071898
385.00	0.068171
386.00	0.064444
387.00	0.061774
388.00	0.059351
389.00	0.056928
390.00	0.054506
391.00	0.052083
392.00	0.050517
393.00	0.049773
394.00	0.049029
395.00	0.048285
396.00	0.047541
397.00	0.046702
398.00	0.045480
399.00	0.044259
400.00	0.043038
401.00	0.041816
402.00	0.040595
403.00	0.038987
404.00	0.037051
405.00	0.035114
406.00	0.033177
407.00	0.031241
408.00	0.029599
409.00	0.027972
410.00	0.026346
411.00	0.024719
412.00	0.023114
413.00	0.021518
414.00	0.019921
415.00	0.018325
416.00	0.016729
417.00	0.015324
418.00	0.013984
419.00	0.012643
420.00	0.011302
421.00	0.010020
422.00	0.0088550
423.00	0.0076903
424.00	0.0065256
425.00	0.0054310
426.00	0.0050460
427.00	0.0046609
428.00	0.0042759
429.00	0.0038909
430.00	0.0035058
431.00	0.0031749
432.00	0.0028462
433.00	0.0025176
434.00	0.0021889
435.00	0.0018603
436.00	0.0015316
437.00	0.0015152
438.00	0.0015152
439.00	0.0015152
440.00	0.0015152
441.00	0.0015152
442.00	0.0015152
443.00	0.0015152
444.00	0.0015152
445.00	0.0015152
446.00	0.0015152
447.00	0.0015152
448.00	0.0015152
449.00	0.0015152
450.00	0.0015152
451.00	
452.00	
453.00	
454.00	
455.00	
456.00	
457.00	
458.00	
459.00	
460.00	
461.00	
462.00	
463.00	
464.00	
465.00	
466.00	
467.00	
468.00	
469.00	
470.00	
471.00	
472.00	
473.00	
474.00	
475.00	
476.00	
477.00	
478.00	
479.00	
480.00	
481.00	
482.00	
483.00	
484.00	
485.00	
486.00	
487.00	
488.00	
489.00	
490.00	
491.00	
492.00	
493.00	
494.00	
495.00	
496.00	
497.00	
498.00	
499.00	
500.00	
501.00	
502.00	
503.00	
504.00	
505.00	
506.00	
507.00	
508.00	
509.00	
510.00	
511.00	
512.00	
513.00	
514.00	
515.00	
516.00	
517.00	
518.00	
519.00	
520.00	
521.00	
522.00	
523.00	
524.00	
525.00	
526.00	
527.00	
528.00	
529.00	
530.00	
531.00	
532.00	
533.00	
534.00	
535.00	
536.00	
537.00	
538.00	
539.00	
540.00	
541.00	
542.00	
543.00	
544.00	
545.00	
546.00	
547.00	
548.00	
549.00	
550.00	
551.00	
552.00	
553.00	
554.00	
555.00	
556.00	
557.00	
558.00	
559.00	
560.00	
561.00	
562.00	
563.00	
564.00	
565.00	
566.00	
567.00	
568.00	
569.00	
570.00	
571.00	
572.00	
573.00	
574.00	
575.00	
576.00	
577.00	
578.00	
579.00	
580.00	
581.00	
582.00	
583.00	
584.00	
585.00	
586.00	
587.00	
588.00	
589.00	
590.00	
591.00	
592.00	
593.00	
594.00	
595.00	
596.00	
597.00	
598.00	
599.00	
600.00	
601.00	
602.00	
603.00	
604.00	
605.00	
606.00	
607.00	
608.00	
609.00	
610.00	
611.00	
612.00	
613.00	
614.00	
615.00	
616.00	
617.00	
618.00	
619.00	
620.00	
621.00	
622.00	
623.00	
624.00	
625.00	
626.00	
627.00	
628.00	
629.00	
630.00	
631.00	
632.00	
633.00	
634.00	
635.00	
636.00	
637.00	
638.00	
639.00	
640.00	
641.00	
642.00	
643.00	
644.00	
645.00	
646.00	
647.00	
648.00	
649.00	
650.00	
651.00	
652.00	
653.00	
654.00	
655.00	
656.00	
657.00	
658.00	
659.00	
660.00	
661.00	
662.00	
663.00	
664.00	
665.00	
666.00	
667.00	
668.00	
669.00	
670.00	
671.00	
672.00	
673.00	
674.00	
675.00	
676.00	
677.00	
678.00	
679.00	
680.00	
681.00	
682.00	
683.00	
684.00	
685.00	
686.00	
687.00	
688.00	
689.00	
690.00	
691.00	
692.00	
693.00	
694.00	
695.00	
696.00	
697.00	
698.00	
699.00	
700.00	
701.00	
702.00	
703.00	
704.00	
705.00	
706.00	
707.00	
708.00	
709.00	
710.00	
711.00	
712.00	
713.00	
714.00	
715.00	
716.00	
717.00	
718.00	
719.00	
720.00	
721.00	
722.00	
723.00	
724.00	
725.00	
726.00	
727.00	
728.00	
729.00	
730.00	
731.00	
732.00	
733.00	
734.00	
735.00	
736.00	
737.00	
738.00	
739.00	
740.00	
741.00	
742.00	
743.00	
744.00	
745.00	
746.00	
747.00	
748.00	
749.00	
750.00	
751.00	
752.00	
753.00	
754.00	
755.00	
756.00	
757.00	
758.00	
759.00	
760.00	
761.00	
762.00	
763.00	
764.00	
765.00	
766.00	
767.00	
768.00	
769.00	
770.00	
771.00	
772.00	
773.00	
774.00	
775.00	
776.00	
777.00	
778.00	
779.00	
780.00	
781.00	
782.00	
783.00	
784.00	
785.00	
786.00	
787.00	
788.00	
789.00	
790.00	
791.00	
792.00	
793.00	
794.00	
795.00	
796.00	
797.00	
798.00	
799.00	
800.00	
801.00	
802.00	
803.00	
804.00	
805.00	
806.00	
807.00	
808.00	
809.00	
810.00	
811.00	
812.00	
813.00	
814.00	
815.00	
816.00	
817.00	
818.00	
819.00	
820.00	
821.00	
822.00	
823.00	
824.00	
825.00	
826.00	
827.00	
828.00	
829.00	
830.00	
831.00	
832.00	
833.00	
834.00	
835.00	
836.00	
837.00	
838.00	
839.00	
840.00	
841.00	
842.00	
843.00	
844.00	
845.00	
846.00	
847.00	
848.00	
849.00	
850.00	
851.00	
852.00	
853.00	
854.00	
855.00	
856.00	
857.00	
858.00	
859.00	
860.00	
861.00	
862.00	
863.00	
864.00	
865.00	
866.00	
867.00	
868.00	
869.00	
870.00	
871.00	
872.00	
873.00	
874.00	
875.00	
876.00	
877.00	
878.00	
879.00	
880.00	
881.00	
882.00	
883.00	
884.00	
885.00	
886.00	
887.00	
888.00	
889.00	
890.00	
891.00	
892.00	
893.00	
894.00	
895.00	
896.00	
897.00	
898.00	
899.00	
900.00	
901.00	
902.00	
903.00	
904.00	
905.00	
906.00	
907.00	
908.00	
909.00	
910.00	
911.00	
912.00	
913.00	
914.00	
915.00	
916.00	
917.00	
918.00	
919.00	
920.00	
921.00	
922.00	
923.00	
924.00	
925.00	
926.00	
927.00	
928.00	
929.00	
930.00	
931.00	
932.00	
933.00	
934.00	
935.00	
936.00	
937.00	
938.00	
939.00	
940.00	
941.00	
942.00	
943.00	
944.00	
945.00	
946.00	
947.00	
948.00	
949.00	
950.00	
951.00	
952.00	
953.00	
954.00	
955.00	
956.00	
957.00	
958.00	
959.00	
960.00	
961.00	
962.00	
963.00	
964.00	
965.00	
966.00	
967.00	
968.00	
969.00	
970.00	
971.00	
972.00	
973.00	
974.00	
975.00	
976.00	
977.00	
978.00	
979.00	
980.00	
981.00	
982.00	
983.00	
984.00	
985.00	
986.00	
987.00	
988.00	
989.00	
990.00	
991.00	
992.00	
993.00	
994.00	
995.00	
996.00	
997.00	
998.00	
999.00	
1000.0	
1001.0	
1002.0	
1003.0	
1004.0	
1005.0	
1006.0	
1007.0	
1008.0	
1009.0	
1010.0	
1011.0	
1012.0	
1013.0	
1014.0	
1015.0	
1016.0	
1017.0	
1018.0	
1019.0	
1020.0	
1021.0	
1022.0	
1023.0	
1024.0	
1025.0	
1026.0	
1027.0	
1028.0	
1029.0	
1030.0	
1031.0	
1032.0	
1033.0	
1034.0	
1035.0	
1036.0	
1037.0	
1038.0	
1039.0	
1040.0	
1041.0	
1042.0	
1043.0	
1044.0	
1045.0	
1046.0	
1047.0	
1048.0	
1049.0	
1050.0	
1051.0	
1052.0	
1053.0	
1054.0	
1055.0	
1056.0	
1057.0	
1058.0	
1059.0	
1060.0	
1061.0	
1062.0	
1063.0	
1064.0	
1065.0	
1066.0	
1067.0	
1068.0	
1069.0	
1070.0	
1071.0	
1072.0	
1073.0	
1074.0	
1075.0	
1076.0	
1077.0	
1078.0	
1079.0	
1080.0	
1081.0	
1082.0	
1083.0	
1084.0	
1085.0	
1086.0	
1087.0	
1088.0	
1089.0	
1090.0	
1091.0	
1092.0	
1093.0	
1094.0	
1095.0	
1096.0	
1097.0	
1098.0	
1099.0	
1100.0	
1101.0	
1102.0	
1103.0	
1104.0	
1105.0	
1106.0	
1107.0	
1108.0	
1109.0	
1110.0	
1111.0	
1112.0	
1113.0	
1114.0	
1115.0	
1116.0	
1117.0	
1118.0	
1119.0	
1120.0	
1121.0	
1122.0	
1123.0	
1124.0	
1125.0	
1126.0	
1127.0	
1128.0	
1129.0	
1130.0	
1131.0	
1132.0	
1133.0	
1134.0	
1135.0	
1136.0	
1137.0	
1138.0	
1139.0	
1140.0	
1141.0	
1142.0	
1143.0	
1144.0	
1145.0	
1146.0	
1147.0	
1148.0	
1149.0	
1150.0	
1151.0	
1152.0	
1153.0	
1154.0	
1155.0	
1156.0	
1157.0	
1158.0	
1159.0	
1160.0	
1161.0	
1162.0	
1163.0	
1164.0	
1165.0	
1166.0	
1167.0	
1168.0	
1169.0	
1170.0	
1171.0	
1172.0	
1173.0	
1174.0	
1175.0	
1176.0	
1177.0	
1178.0	
1179.0	
1180.0	
1181.0	
1182.0	
1183.0	
1184.0	
1185.0	
1186.0	
1187.0	
1188.0	
1189.0	
1190.0	
1191.0	
1192.0	
1193.0	
1194.0	
1195.0	
1196.0	
1197.0	
1198.0	
1199.0	
1200.0	
