Wavelength (nm)	"167, OBC 2017_7255, 5"
200.00	
201.00	
202.00	
203.00	
204.00	
205.00	
206.00	
207.00	
208.00	
209.00	
210.00	
211.00	
212.00	
213.00	
214.00	
215.00	
216.00	
217.00	
218.00	
219.00	
220.00	
221.00	
222.00	
223.00	
224.00	
225.00	
226.00	
227.00	
228.00	
229.00	
230.00	
231.00	
232.00	
233.00	
234.00	
235.00	
236.00	
237.00	
238.00	
239.00	
240.00	
241.00	
242.00	
243.00	
244.00	
245.00	
246.00	
247.00	
248.00	
249.00	
250.00	
251.00	
252.00	
253.00	
254.00	
255.00	
256.00	
257.00	
258.00	
259.00	
260.00	
261.00	
262.00	
263.00	
264.00	
265.00	
266.00	
267.00	
268.00	
269.00	
270.00	
271.00	
272.00	
273.00	
274.00	
275.00	
276.00	
277.00	
278.00	
279.00	
280.00	
281.00	
282.00	
283.00	
284.00	
285.00	
286.00	
287.00	
288.00	
289.00	
290.00	
291.00	
292.00	
293.00	
294.00	
295.00	
296.00	
297.00	
298.00	
299.00	
300.00	
301.00	
302.00	
303.00	
304.00	
305.00	
306.00	
307.00	
308.00	
309.00	
310.00	
311.00	
312.00	
313.00	
314.00	
315.00	
316.00	
317.00	
318.00	
319.00	
320.00	
321.00	
322.00	
323.00	
324.00	
325.00	
326.00	
327.00	
328.00	
329.00	
330.00	
331.00	
332.00	
333.00	
334.00	
335.00	
336.00	
337.00	
338.00	
339.00	
340.00	
341.00	
342.00	
343.00	
344.00	
345.00	
346.00	
347.00	
348.00	
349.00	
350.00	
351.00	
352.00	
353.00	
354.00	
355.00	
356.00	
357.00	
358.00	
359.00	
360.00	
361.00	
362.00	
363.00	
364.00	
365.00	
366.00	
367.00	
368.00	
369.00	
370.00	
371.00	
372.00	
373.00	
374.00	
375.00	
376.00	
377.00	
378.00	
379.00	
380.00	
381.00	
382.00	
383.00	
384.00	
385.00	
386.00	
387.00	
388.00	
389.00	
390.00	
391.00	
392.00	
393.00	
394.00	
395.00	
396.00	
397.00	
398.00	
399.00	
400.00	0.093191
401.00	0.090993
402.00	0.088794
403.00	0.086781
404.00	0.085111
405.00	0.083441
406.00	0.081759
407.00	0.080040
408.00	0.078320
409.00	0.076587
410.00	0.074812
411.00	0.073036
412.00	0.071261
413.00	0.068784
414.00	0.066278
415.00	0.063772
416.00	0.061119
417.00	0.058442
418.00	0.055768
419.00	0.053107
420.00	0.050446
421.00	0.047797
422.00	0.045177
423.00	0.042558
424.00	0.039938
425.00	0.037403
426.00	0.034887
427.00	0.032370
428.00	0.031142
429.00	0.029927
430.00	0.028737
431.00	0.027599
432.00	0.026461
433.00	0.025448
434.00	0.024563
435.00	0.023678
436.00	0.023205
437.00	0.023042
438.00	0.022879
439.00	0.022716
440.00	0.022773
441.00	0.022939
442.00	0.023105
443.00	0.023272
444.00	0.023325
445.00	0.023329
446.00	0.023332
447.00	0.023336
448.00	0.023479
449.00	0.023880
450.00	0.024282
451.00	0.024683
452.00	0.025085
453.00	0.025666
454.00	0.026448
455.00	0.027231
456.00	0.028013
457.00	0.028940
458.00	0.030187
459.00	0.031434
460.00	0.032681
461.00	0.034059
462.00	0.036243
463.00	0.038426
464.00	0.040610
465.00	0.042616
466.00	0.044596
467.00	0.046575
468.00	0.048601
469.00	0.050658
470.00	0.052716
471.00	0.054360
472.00	0.055866
473.00	0.057373
474.00	0.059041
475.00	0.061086
476.00	0.063131
477.00	0.065176
478.00	0.067153
479.00	0.069058
480.00	0.070963
481.00	0.072869
482.00	0.074850
483.00	0.078011
484.00	0.081172
485.00	0.084334
486.00	0.087749
487.00	0.092496
488.00	0.097243
489.00	0.10199
490.00	0.10831
491.00	0.11485
492.00	0.12249
493.00	0.13180
494.00	0.14117
495.00	0.15116
496.00	0.16116
497.00	0.17143
498.00	0.18297
499.00	0.19450
500.00	0.20604
501.00	0.21713
502.00	0.22628
503.00	0.23542
504.00	0.24457
505.00	0.25233
506.00	0.25716
507.00	0.25987
508.00	0.25807
509.00	0.25471
510.00	0.24736
511.00	0.23761
512.00	0.22726
513.00	0.21526
514.00	0.20244
515.00	0.18961
516.00	0.17803
517.00	0.16669
518.00	0.15680
519.00	0.14876
520.00	0.14072
521.00	0.13564
522.00	0.13183
523.00	0.12925
524.00	0.12837
525.00	0.12965
526.00	0.13157
527.00	0.13511
528.00	0.13864
529.00	0.14348
530.00	0.14846
531.00	0.15400
532.00	0.15979
533.00	0.16566
534.00	0.17158
535.00	0.17684
536.00	0.18181
537.00	0.18639
538.00	0.19055
539.00	0.19471
540.00	0.19891
541.00	0.20311
542.00	0.20732
543.00	0.21165
544.00	0.21599
545.00	0.22014
546.00	0.22409
547.00	0.22844
548.00	0.23428
549.00	0.24012
550.00	0.24775
551.00	0.25543
552.00	0.26389
553.00	0.27235
554.00	0.28389
555.00	0.29650
556.00	0.31131
557.00	0.32806
558.00	0.34813
559.00	0.36931
560.00	0.39282
561.00	0.42262
562.00	0.45242
563.00	0.48675
564.00	0.52228
565.00	0.56074
566.00	0.60360
567.00	0.64650
568.00	0.69357
569.00	0.74064
570.00	0.78576
571.00	0.83008
572.00	0.87440
573.00	0.91270
574.00	0.95075
575.00	0.97941
576.00	0.99495
577.00	1.0000
578.00	0.99576
579.00	0.97566
580.00	0.94507
581.00	0.91047
582.00	0.86532
583.00	0.81645
584.00	0.76739
585.00	0.71745
586.00	0.66752
587.00	0.61626
588.00	0.56417
589.00	0.51208
590.00	0.46407
591.00	0.41672
592.00	0.37441
593.00	0.33607
594.00	0.29651
595.00	0.25864
596.00	0.22439
597.00	0.19909
598.00	0.17441
599.00	0.15087
600.00	0.12857
601.00	0.11046
602.00	0.093462
603.00	0.081181
604.00	0.068899
605.00	0.059401
606.00	0.051040
607.00	0.043388
608.00	0.038108
609.00	0.032828
610.00	0.027621
611.00	0.024161
612.00	0.020702
613.00	0.017243
614.00	0.014428
615.00	0.011932
616.00	0.0094349
617.00	0.0070038
618.00	0.0061456
619.00	0.0052875
620.00	0.0044493
621.00	0.0042549
622.00	0.0040606
623.00	0.0038662
624.00	0.0035587
625.00	0.0032134
626.00	0.0028682
627.00	0.0025334
628.00	0.0025367
629.00	0.0025400
630.00	0.0025432
631.00	0.0025465
632.00	0.0025498
633.00	0.0025531
634.00	0.0025564
635.00	0.0025580
636.00	0.0025580
637.00	0.0025580
638.00	0.0025580
639.00	0.0025580
640.00	0.0025580
641.00	0.0025580
642.00	0.0025580
643.00	0.0025580
644.00	0.0025580
645.00	0.0025580
646.00	0.0025580
647.00	0.0025580
648.00	0.0025580
649.00	0.0025580
650.00	0.0025580
651.00	
652.00	
653.00	
654.00	
655.00	
656.00	
657.00	
658.00	
659.00	
660.00	
661.00	
662.00	
663.00	
664.00	
665.00	
666.00	
667.00	
668.00	
669.00	
670.00	
671.00	
672.00	
673.00	
674.00	
675.00	
676.00	
677.00	
678.00	
679.00	
680.00	
681.00	
682.00	
683.00	
684.00	
685.00	
686.00	
687.00	
688.00	
689.00	
690.00	
691.00	
692.00	
693.00	
694.00	
695.00	
696.00	
697.00	
698.00	
699.00	
700.00	
701.00	
702.00	
703.00	
704.00	
705.00	
706.00	
707.00	
708.00	
709.00	
710.00	
711.00	
712.00	
713.00	
714.00	
715.00	
716.00	
717.00	
718.00	
719.00	
720.00	
721.00	
722.00	
723.00	
724.00	
725.00	
726.00	
727.00	
728.00	
729.00	
730.00	
731.00	
732.00	
733.00	
734.00	
735.00	
736.00	
737.00	
738.00	
739.00	
740.00	
741.00	
742.00	
743.00	
744.00	
745.00	
746.00	
747.00	
748.00	
749.00	
750.00	
751.00	
752.00	
753.00	
754.00	
755.00	
756.00	
757.00	
758.00	
759.00	
760.00	
761.00	
762.00	
763.00	
764.00	
765.00	
766.00	
767.00	
768.00	
769.00	
770.00	
771.00	
772.00	
773.00	
774.00	
775.00	
776.00	
777.00	
778.00	
779.00	
780.00	
781.00	
782.00	
783.00	
784.00	
785.00	
786.00	
787.00	
788.00	
789.00	
790.00	
791.00	
792.00	
793.00	
794.00	
795.00	
796.00	
797.00	
798.00	
799.00	
800.00	
801.00	
802.00	
803.00	
804.00	
805.00	
806.00	
807.00	
808.00	
809.00	
810.00	
811.00	
812.00	
813.00	
814.00	
815.00	
816.00	
817.00	
818.00	
819.00	
820.00	
821.00	
822.00	
823.00	
824.00	
825.00	
826.00	
827.00	
828.00	
829.00	
830.00	
831.00	
832.00	
833.00	
834.00	
835.00	
836.00	
837.00	
838.00	
839.00	
840.00	
841.00	
842.00	
843.00	
844.00	
845.00	
846.00	
847.00	
848.00	
849.00	
850.00	
851.00	
852.00	
853.00	
854.00	
855.00	
856.00	
857.00	
858.00	
859.00	
860.00	
861.00	
862.00	
863.00	
864.00	
865.00	
866.00	
867.00	
868.00	
869.00	
870.00	
871.00	
872.00	
873.00	
874.00	
875.00	
876.00	
877.00	
878.00	
879.00	
880.00	
881.00	
882.00	
883.00	
884.00	
885.00	
886.00	
887.00	
888.00	
889.00	
890.00	
891.00	
892.00	
893.00	
894.00	
895.00	
896.00	
897.00	
898.00	
899.00	
900.00	
901.00	
902.00	
903.00	
904.00	
905.00	
906.00	
907.00	
908.00	
909.00	
910.00	
911.00	
912.00	
913.00	
914.00	
915.00	
916.00	
917.00	
918.00	
919.00	
920.00	
921.00	
922.00	
923.00	
924.00	
925.00	
926.00	
927.00	
928.00	
929.00	
930.00	
931.00	
932.00	
933.00	
934.00	
935.00	
936.00	
937.00	
938.00	
939.00	
940.00	
941.00	
942.00	
943.00	
944.00	
945.00	
946.00	
947.00	
948.00	
949.00	
950.00	
951.00	
952.00	
953.00	
954.00	
955.00	
956.00	
957.00	
958.00	
959.00	
960.00	
961.00	
962.00	
963.00	
964.00	
965.00	
966.00	
967.00	
968.00	
969.00	
970.00	
971.00	
972.00	
973.00	
974.00	
975.00	
976.00	
977.00	
978.00	
979.00	
980.00	
981.00	
982.00	
983.00	
984.00	
985.00	
986.00	
987.00	
988.00	
989.00	
990.00	
991.00	
992.00	
993.00	
994.00	
995.00	
996.00	
997.00	
998.00	
999.00	
1000.0	
1001.0	
1002.0	
1003.0	
1004.0	
1005.0	
1006.0	
1007.0	
1008.0	
1009.0	
1010.0	
1011.0	
1012.0	
1013.0	
1014.0	
1015.0	
1016.0	
1017.0	
1018.0	
1019.0	
1020.0	
1021.0	
1022.0	
1023.0	
1024.0	
1025.0	
1026.0	
1027.0	
1028.0	
1029.0	
1030.0	
1031.0	
1032.0	
1033.0	
1034.0	
1035.0	
1036.0	
1037.0	
1038.0	
1039.0	
1040.0	
1041.0	
1042.0	
1043.0	
1044.0	
1045.0	
1046.0	
1047.0	
1048.0	
1049.0	
1050.0	
1051.0	
1052.0	
1053.0	
1054.0	
1055.0	
1056.0	
1057.0	
1058.0	
1059.0	
1060.0	
1061.0	
1062.0	
1063.0	
1064.0	
1065.0	
1066.0	
1067.0	
1068.0	
1069.0	
1070.0	
1071.0	
1072.0	
1073.0	
1074.0	
1075.0	
1076.0	
1077.0	
1078.0	
1079.0	
1080.0	
1081.0	
1082.0	
1083.0	
1084.0	
1085.0	
1086.0	
1087.0	
1088.0	
1089.0	
1090.0	
1091.0	
1092.0	
1093.0	
1094.0	
1095.0	
1096.0	
1097.0	
1098.0	
1099.0	
1100.0	
1101.0	
1102.0	
1103.0	
1104.0	
1105.0	
1106.0	
1107.0	
1108.0	
1109.0	
1110.0	
1111.0	
1112.0	
1113.0	
1114.0	
1115.0	
1116.0	
1117.0	
1118.0	
1119.0	
1120.0	
1121.0	
1122.0	
1123.0	
1124.0	
1125.0	
1126.0	
1127.0	
1128.0	
1129.0	
1130.0	
1131.0	
1132.0	
1133.0	
1134.0	
1135.0	
1136.0	
1137.0	
1138.0	
1139.0	
1140.0	
1141.0	
1142.0	
1143.0	
1144.0	
1145.0	
1146.0	
1147.0	
1148.0	
1149.0	
1150.0	
1151.0	
1152.0	
1153.0	
1154.0	
1155.0	
1156.0	
1157.0	
1158.0	
1159.0	
1160.0	
1161.0	
1162.0	
1163.0	
1164.0	
1165.0	
1166.0	
1167.0	
1168.0	
1169.0	
1170.0	
1171.0	
1172.0	
1173.0	
1174.0	
1175.0	
1176.0	
1177.0	
1178.0	
1179.0	
1180.0	
1181.0	
1182.0	
1183.0	
1184.0	
1185.0	
1186.0	
1187.0	
1188.0	
1189.0	
1190.0	
1191.0	
1192.0	
1193.0	
1194.0	
1195.0	
1196.0	
1197.0	
1198.0	
1199.0	
1200.0	
