Wavelength (nm)	167, OBC 2017_7255, 5
400.00	
401.00	
402.00	
403.00	
404.00	
405.00	
406.00	
407.00	
408.00	
409.00	
410.00	
411.00	
412.00	
413.00	
414.00	
415.00	
416.00	
417.00	
418.00	
419.00	
420.00	
421.00	
422.00	
423.00	
424.00	
425.00	
426.00	
427.00	
428.00	
429.00	
430.00	
431.00	
432.00	
433.00	
434.00	
435.00	
436.00	
437.00	
438.00	
439.00	
440.00	
441.00	
442.00	
443.00	
444.00	
445.00	
446.00	
447.00	
448.00	
449.00	
450.00	
451.00	
452.00	
453.00	
454.00	
455.00	
456.00	
457.00	
458.00	
459.00	
460.00	
461.00	
462.00	
463.00	
464.00	
465.00	
466.00	
467.00	
468.00	
469.00	
470.00	
471.00	
472.00	
473.00	
474.00	
475.00	
476.00	
477.00	
478.00	
479.00	
480.00	
481.00	
482.00	
483.00	
484.00	
485.00	
486.00	
487.00	
488.00	
489.00	
490.00	
491.00	
492.00	
493.00	
494.00	
495.00	
496.00	
497.00	
498.00	
499.00	
500.00	
501.00	
502.00	
503.00	
504.00	
505.00	
506.00	
507.00	
508.00	
509.00	
510.00	
511.00	
512.00	
513.00	
514.00	
515.00	
516.00	
517.00	
518.00	
519.00	
520.00	
521.00	
522.00	
523.00	
524.00	
525.00	
526.00	
527.00	
528.00	
529.00	
530.00	
531.00	
532.00	
533.00	
534.00	
535.00	
536.00	
537.00	
538.00	
539.00	
540.00	
541.00	
542.00	
543.00	
544.00	
545.00	
546.00	
547.00	
548.00	
549.00	
550.00	0.0075800
551.00	0.0085156
552.00	0.0094961
553.00	0.010477
554.00	0.011580
555.00	0.012801
556.00	0.014022
557.00	0.015522
558.00	0.017040
559.00	0.018677
560.00	0.020454
561.00	0.022431
562.00	0.024799
563.00	0.027425
564.00	0.030965
565.00	0.035255
566.00	0.041570
567.00	0.050008
568.00	0.059775
569.00	0.070132
570.00	0.079337
571.00	0.090597
572.00	0.10542
573.00	0.12420
574.00	0.14082
575.00	0.16231
576.00	0.18692
577.00	0.21578
578.00	0.24514
579.00	0.27492
580.00	0.31240
581.00	0.35230
582.00	0.39514
583.00	0.43866
584.00	0.48219
585.00	0.53150
586.00	0.58318
587.00	0.63492
588.00	0.68678
589.00	0.73761
590.00	0.78439
591.00	0.83089
592.00	0.87422
593.00	0.91223
594.00	0.94226
595.00	0.96824
596.00	0.98951
597.00	0.99811
598.00	1.0000
599.00	0.99691
600.00	0.99012
601.00	0.97535
602.00	0.95388
603.00	0.92931
604.00	0.90399
605.00	0.87638
606.00	0.84878
607.00	0.81755
608.00	0.78381
609.00	0.75006
610.00	0.71564
611.00	0.68025
612.00	0.64486
613.00	0.61153
614.00	0.57889
615.00	0.54751
616.00	0.51957
617.00	0.49162
618.00	0.46573
619.00	0.44111
620.00	0.41648
621.00	0.39491
622.00	0.37344
623.00	0.35309
624.00	0.33523
625.00	0.31736
626.00	0.30148
627.00	0.28709
628.00	0.27270
629.00	0.26025
630.00	0.24799
631.00	0.23579
632.00	0.22369
633.00	0.21160
634.00	0.20071
635.00	0.19063
636.00	0.18055
637.00	0.17223
638.00	0.16420
639.00	0.15617
640.00	0.14910
641.00	0.14299
642.00	0.13687
643.00	0.13076
644.00	0.12498
645.00	0.11943
646.00	0.11389
647.00	0.10834
648.00	0.10385
649.00	0.099376
650.00	0.094905
651.00	0.090433
652.00	0.086383
653.00	0.082374
654.00	0.078365
655.00	0.074355
656.00	0.070861
657.00	0.067465
658.00	0.064069
659.00	0.060672
660.00	0.057649
661.00	0.054883
662.00	0.052118
663.00	0.049353
664.00	0.046588
665.00	0.043940
666.00	0.041492
667.00	0.039043
668.00	0.036595
669.00	0.034146
670.00	0.032008
671.00	0.030179
672.00	0.028350
673.00	0.026521
674.00	0.024692
675.00	0.022869
676.00	0.021623
677.00	0.020378
678.00	0.019133
679.00	0.017888
680.00	0.016642
681.00	0.015316
682.00	0.013987
683.00	0.012658
684.00	0.011329
685.00	0.010256
686.00	0.0092817
687.00	0.0083077
688.00	0.0073338
689.00	0.0064650
690.00	0.0059919
691.00	0.0055189
692.00	0.0050458
693.00	0.0046040
694.00	0.0042666
695.00	0.0039292
696.00	0.0035918
697.00	0.0031529
698.00	0.0026166
699.00	0.0020802
700.00	0.0015438
701.00	
702.00	
703.00	
704.00	
705.00	
706.00	
707.00	
708.00	
709.00	
710.00	
711.00	
712.00	
713.00	
714.00	
715.00	
716.00	
717.00	
718.00	
719.00	
720.00	
721.00	
722.00	
723.00	
724.00	
725.00	
726.00	
727.00	
728.00	
729.00	
730.00	
731.00	
732.00	
733.00	
734.00	
735.00	
736.00	
737.00	
738.00	
739.00	
740.00	
741.00	
742.00	
743.00	
744.00	
745.00	
746.00	
747.00	
748.00	
749.00	
750.00	
751.00	
752.00	
753.00	
754.00	
755.00	
756.00	
757.00	
758.00	
759.00	
760.00	
761.00	
762.00	
763.00	
764.00	
765.00	
766.00	
767.00	
768.00	
769.00	
770.00	
771.00	
772.00	
773.00	
774.00	
775.00	
776.00	
777.00	
778.00	
779.00	
780.00	
781.00	
782.00	
783.00	
784.00	
785.00	
786.00	
787.00	
788.00	
789.00	
790.00	
791.00	
792.00	
793.00	
794.00	
795.00	
796.00	
797.00	
798.00	
799.00	
800.00	
801.00	
802.00	
803.00	
804.00	
805.00	
806.00	
807.00	
808.00	
809.00	
810.00	
811.00	
812.00	
813.00	
814.00	
815.00	
816.00	
817.00	
818.00	
819.00	
820.00	
821.00	
822.00	
823.00	
824.00	
825.00	
826.00	
827.00	
828.00	
829.00	
830.00	
831.00	
832.00	
833.00	
834.00	
835.00	
836.00	
837.00	
838.00	
839.00	
840.00	
841.00	
842.00	
843.00	
844.00	
845.00	
846.00	
847.00	
848.00	
849.00	
850.00	
